ax,ay,az,gx,gy,gz
1.26816,-0.00719,10.30936,-0.02465,0.0048,-0.02811
1.26816,-0.00719,10.30936,-0.02465,0.0048,-0.02811
1.26816,-0.00719,10.30936,-0.02465,0.0048,-0.02811
1.26816,-0.00719,10.30936,-0.02465,0.0048,-0.02811
1.30289,-0.03832,10.2914,-0.02478,0.0036,-0.02798
1.30289,-0.03832,10.2914,-0.02478,0.0036,-0.02798
1.30289,-0.03832,10.2914,-0.02478,0.0036,-0.02798
1.30289,-0.03832,10.2914,-0.02478,0.0036,-0.02798
1.29211,-0.03353,10.33571,-0.02478,0.00346,-0.02785
1.29571,-0.01557,10.31415,-0.02465,0.00373,-0.02691
1.29571,-0.01557,10.31415,-0.02465,0.00373,-0.02691
1.29571,-0.01557,10.31415,-0.02465,0.00373,-0.02691
1.26577,0.0,10.28182,-0.02438,0.00453,-0.02731
1.26577,0.0,10.28182,-0.02438,0.00453,-0.02731
1.27655,-0.00958,10.30337,-0.02491,0.0044,-0.02758
1.27655,-0.00958,10.30337,-0.02491,0.0044,-0.02758
1.26218,-0.00838,10.33571,-0.02438,0.0044,-0.02758
1.26218,-0.00838,10.33571,-0.02438,0.0044,-0.02758
1.26218,-0.00838,10.33571,-0.02438,0.0044,-0.02758
1.28134,-0.02635,10.29739,-0.02425,0.0052,-0.02785
1.25739,-0.02036,10.28661,-0.02438,0.0044,-0.02838
1.25739,-0.02036,10.28661,-0.02438,0.0044,-0.02838
1.25739,-0.02036,10.28661,-0.02438,0.0044,-0.02838
1.25739,-0.02036,10.28661,-0.02438,0.0044,-0.02838
1.27535,-0.02275,10.28541,-0.02451,0.004,-0.02785
1.27535,-0.02275,10.28541,-0.02451,0.004,-0.02785
1.27535,-0.02275,10.28541,-0.02451,0.004,-0.02785
1.27535,-0.02275,10.28541,-0.02451,0.004,-0.02785
1.27655,-0.02275,10.28421,-0.02411,0.00466,-0.02771
1.30169,-0.01198,10.29739,-0.02425,0.00426,-0.02798
1.30169,-0.01198,10.29739,-0.02425,0.00426,-0.02798
1.30169,-0.01198,10.29739,-0.02425,0.00426,-0.02798
1.26218,-0.02635,10.29978,-0.02411,0.0048,-0.02798
1.26218,-0.02635,10.29978,-0.02411,0.0048,-0.02798
1.28732,-0.00599,10.2914,-0.02425,0.00426,-0.02851
1.28732,-0.00599,10.2914,-0.02425,0.00426,-0.02851
1.27295,-0.00719,10.31535,-0.02438,0.0044,-0.02864
1.27295,-0.00719,10.31535,-0.02438,0.0044,-0.02864
1.27295,-0.00719,10.31535,-0.02438,0.0044,-0.02864
1.27056,-0.01317,10.29619,-0.02491,0.0044,-0.02838
1.27056,-0.01317,10.29619,-0.02491,0.0044,-0.02838
1.27056,-0.01317,10.29619,-0.02491,0.0044,-0.02838
1.27056,-0.01317,10.29619,-0.02491,0.0044,-0.02838
1.29451,0.0,10.31295,-0.02438,0.00426,-0.02825
1.27056,-0.02515,10.30697,-0.02491,0.00386,-0.02798
1.27056,-0.02515,10.30697,-0.02491,0.00386,-0.02798
1.27056,-0.02515,10.30697,-0.02491,0.00386,-0.02798
1.27535,0.00719,10.30697,-0.02478,0.00413,-0.02718
1.27535,0.00719,10.30697,-0.02478,0.00413,-0.02718
1.28373,-0.01916,10.32613,-0.02438,0.00426,-0.02758
1.28373,-0.01916,10.32613,-0.02438,0.00426,-0.02758
1.28373,-0.02994,10.30098,-0.02438,0.00333,-0.02878
1.28373,-0.02994,10.30098,-0.02438,0.00333,-0.02878
1.28373,-0.02994,10.30098,-0.02438,0.00333,-0.02878
1.27415,-0.01078,10.33092,-0.02438,0.00386,-0.02864
1.26816,-0.01677,10.34649,-0.02451,0.00386,-0.02758
1.26816,-0.01677,10.34649,-0.02451,0.00386,-0.02758
1.26816,-0.01677,10.34649,-0.02451,0.00386,-0.02758
1.26816,-0.01677,10.34649,-0.02451,0.00386,-0.02758
1.25858,-0.02275,10.30936,-0.02411,0.00573,-0.02798
1.25858,-0.02275,10.30936,-0.02411,0.00573,-0.02798
1.25858,-0.02275,10.30936,-0.02411,0.00573,-0.02798
1.25858,-0.02275,10.30936,-0.02411,0.00573,-0.02798
1.29451,-0.0012,10.32134,-0.02425,0.00506,-0.02825
1.28613,-0.0024,10.32134,-0.02438,0.00413,-0.02825
1.28613,-0.0024,10.32134,-0.02438,0.00413,-0.02825
1.28613,-0.0024,10.32134,-0.02438,0.00413,-0.02825
1.29092,-0.01796,10.31655,-0.02451,0.00453,-0.02771
1.29092,-0.01796,10.31655,-0.02451,0.00453,-0.02771
1.26218,-0.04551,10.289,-0.02425,0.004,-0.02864
1.26218,-0.04551,10.289,-0.02425,0.004,-0.02864
1.26098,-0.01317,10.28781,-0.02438,0.00506,-0.02878
1.26098,-0.01317,10.28781,-0.02438,0.00506,-0.02878
1.26098,-0.01317,10.28781,-0.02438,0.00506,-0.02878
1.27535,-0.00599,10.30816,-0.02372,0.00506,-0.02811
1.26098,-0.0012,10.34768,-0.02372,0.00533,-0.02825
1.26098,-0.0012,10.34768,-0.02372,0.00533,-0.02825
1.26098,-0.0012,10.34768,-0.02372,0.00533,-0.02825
1.28373,0.00719,10.32852,-0.02398,0.00386,-0.02825
1.28373,0.00719,10.32852,-0.02398,0.00386,-0.02825
1.28373,0.00719,10.32852,-0.02398,0.00386,-0.02825
1.28373,0.00719,10.32852,-0.02398,0.00386,-0.02825
1.28852,-0.01437,10.30577,-0.02411,0.004,-0.02745
1.30888,-0.00359,10.33331,-0.02451,0.0044,-0.02785
1.30888,-0.00359,10.33331,-0.02451,0.0044,-0.02785
1.30888,-0.00359,10.33331,-0.02451,0.0044,-0.02785
1.28732,-0.00719,10.32493,-0.02438,0.0048,-0.02825
1.28732,-0.00719,10.32493,-0.02438,0.0048,-0.02825
1.27415,-0.01916,10.32373,-0.02438,0.00346,-0.02758
1.27415,-0.01916,10.32373,-0.02438,0.00346,-0.02758
1.28732,-0.00958,10.31535,-0.02451,0.0036,-0.02838
1.28732,-0.00958,10.31535,-0.02451,0.0036,-0.02838
1.28732,-0.00958,10.31535,-0.02451,0.0036,-0.02838
1.26697,-0.02515,10.32373,-0.02465,0.0036,-0.02825
1.25858,-0.02036,10.30697,-0.02438,0.00426,-0.02758
1.25858,-0.02036,10.30697,-0.02438,0.00426,-0.02758
1.25858,-0.02036,10.30697,-0.02438,0.00426,-0.02758
1.25858,-0.02036,10.30697,-0.02438,0.00426,-0.02758
1.25379,-0.01437,10.28661,-0.02465,0.00373,-0.02851
1.25379,-0.01437,10.28661,-0.02465,0.00373,-0.02851
1.25379,-0.01437,10.28661,-0.02465,0.00373,-0.02851
1.25379,-0.01437,10.28661,-0.02465,0.00373,-0.02851
1.27535,-0.02994,10.28541,-0.02478,0.0036,-0.02878
1.27655,-0.02635,10.30816,-0.02478,0.00386,-0.02904
1.27655,-0.02635,10.30816,-0.02478,0.00386,-0.02904
1.27655,-0.02635,10.30816,-0.02478,0.00386,-0.02904
1.26697,-0.03114,10.27583,-0.02425,0.00453,-0.02825
1.26697,-0.03114,10.27583,-0.02425,0.00453,-0.02825
1.25739,-0.03593,10.2902,-0.02411,0.00466,-0.02851
1.25739,-0.03593,10.2902,-0.02411,0.00466,-0.02851
1.28253,-0.02515,10.31056,-0.02491,0.00466,-0.02864
1.28253,-0.02515,10.31056,-0.02491,0.00466,-0.02864
1.28253,-0.02515,10.31056,-0.02491,0.00466,-0.02864
1.27655,-0.01796,10.28781,-0.02491,0.0036,-0.02864
1.28493,-0.02156,10.29619,-0.02451,0.00426,-0.02904
1.28493,-0.02156,10.29619,-0.02451,0.00426,-0.02904
1.28493,-0.02156,10.29619,-0.02451,0.00426,-0.02904
1.30289,-0.00958,10.32732,-0.02411,0.004,-0.02891
1.27655,-0.0012,10.30697,-0.02425,0.0048,-0.02785
1.27655,-0.0012,10.30697,-0.02425,0.0048,-0.02785
1.27655,-0.0012,10.30697,-0.02425,0.0048,-0.02785
1.26337,-0.01677,10.2926,-0.02465,0.0048,-0.02838
1.26337,-0.01677,10.2926,-0.02465,0.0048,-0.02838
1.27774,-0.00479,10.30577,-0.02478,0.0044,-0.02811
1.27774,-0.00479,10.30577,-0.02478,0.0044,-0.02811
1.28014,-0.01557,10.29978,-0.02465,0.00426,-0.02851
1.28014,-0.01557,10.29978,-0.02465,0.00426,-0.02851
1.28014,-0.01557,10.29978,-0.02465,0.00426,-0.02851
1.27176,-0.01078,10.32613,-0.02451,0.0048,-0.02891
1.28972,-0.01317,10.2926,-0.02465,0.0048,-0.02811
1.28972,-0.01317,10.2926,-0.02465,0.0048,-0.02811
1.28972,-0.01317,10.2926,-0.02465,0.0048,-0.02811
1.28972,-0.01317,10.2926,-0.02465,0.0048,-0.02811
1.27535,-0.02754,10.33092,-0.02438,0.00466,-0.02811
1.27535,-0.02754,10.33092,-0.02438,0.00466,-0.02811
1.27535,-0.02754,10.33092,-0.02438,0.00466,-0.02811
1.27535,-0.02754,10.33092,-0.02438,0.00466,-0.02811
1.28014,-0.01796,10.33092,-0.02411,0.004,-0.02785
1.27415,-0.00838,10.2902,-0.02451,0.004,-0.02838
1.27415,-0.00838,10.2902,-0.02451,0.004,-0.02838
1.27415,-0.00838,10.2902,-0.02451,0.004,-0.02838
1.28732,-0.01677,10.30816,-0.02465,0.00493,-0.02771
1.28732,-0.01677,10.30816,-0.02465,0.00493,-0.02771
1.30289,-0.00958,10.30577,-0.02478,0.00453,-0.02745
1.30289,-0.00958,10.30577,-0.02478,0.00453,-0.02745
1.27535,-0.02754,10.31176,-0.02505,0.00506,-0.02785
1.27535,-0.02754,10.31176,-0.02505,0.00506,-0.02785
1.27535,-0.02754,10.31176,-0.02505,0.00506,-0.02785
1.29092,-0.01317,10.32613,-0.02518,0.0048,-0.02851
1.26337,-0.02036,10.32493,-0.02518,0.00413,-0.02851
1.26337,-0.02036,10.32493,-0.02518,0.00413,-0.02851
1.26337,-0.02036,10.32493,-0.02518,0.00413,-0.02851
1.27655,-0.01677,10.30697,-0.02451,0.00426,-0.02785
1.27655,-0.01916,10.30337,-0.02385,0.00386,-0.02851
1.27655,-0.01916,10.30337,-0.02385,0.00386,-0.02851
1.27655,-0.01916,10.30337,-0.02385,0.00386,-0.02851
1.27056,-0.04311,10.27344,-0.02385,0.0032,-0.02811
1.27056,-0.04311,10.27344,-0.02385,0.0032,-0.02811
1.27894,-0.01796,10.30098,-0.02411,0.00373,-0.02825
1.27894,-0.01796,10.30098,-0.02411,0.00373,-0.02825
1.27056,-0.02156,10.2902,-0.02465,0.004,-0.02851
1.27056,-0.02156,10.2902,-0.02465,0.004,-0.02851
1.27056,-0.02156,10.2902,-0.02465,0.004,-0.02851
1.23942,-0.01437,10.31415,-0.02425,0.00373,-0.02851
1.27894,-0.02515,10.2926,-0.02491,0.00373,-0.02771
1.27894,-0.02515,10.2926,-0.02491,0.00373,-0.02771
1.27894,-0.02515,10.2926,-0.02491,0.00373,-0.02771
1.27894,-0.02515,10.2926,-0.02491,0.00373,-0.02771
1.28014,-0.03952,10.31415,-0.02438,0.00386,-0.02851
1.28014,-0.03952,10.31415,-0.02438,0.00386,-0.02851
1.28014,-0.03952,10.31415,-0.02438,0.00386,-0.02851
1.28014,-0.03952,10.31415,-0.02438,0.00386,-0.02851
1.28493,-0.01198,10.3369,-0.02425,0.00306,-0.02798
1.29571,0.01198,10.29499,-0.02385,0.0032,-0.02731
1.29571,0.01198,10.29499,-0.02385,0.0032,-0.02731
1.29571,0.01198,10.29499,-0.02385,0.0032,-0.02731
1.28613,-0.01437,10.32613,-0.02451,0.00426,-0.02798
1.28613,-0.01437,10.32613,-0.02451,0.00426,-0.02798
1.30409,-0.02395,10.28541,-0.02425,0.00373,-0.02838
1.30409,-0.02395,10.28541,-0.02425,0.00373,-0.02838
1.29331,-0.04551,10.27703,-0.02451,0.0036,-0.02851
1.29331,-0.04551,10.27703,-0.02451,0.0036,-0.02851
1.29331,-0.04551,10.27703,-0.02451,0.0036,-0.02851
1.28134,-0.00599,10.29499,-0.02478,0.004,-0.02864
1.29211,-0.00359,10.32373,-0.02478,0.0044,-0.02851
1.29211,-0.00359,10.32373,-0.02478,0.0044,-0.02851
1.29211,-0.00359,10.32373,-0.02478,0.0044,-0.02851
1.29211,-0.00359,10.32373,-0.02478,0.0044,-0.02851
1.2969,0.00359,10.2926,-0.02438,0.0048,-0.02864
1.2969,0.00359,10.2926,-0.02438,0.0048,-0.02864
1.2969,0.00359,10.2926,-0.02438,0.0048,-0.02864
1.2969,0.00359,10.2926,-0.02438,0.0048,-0.02864
1.29211,-0.01677,10.30457,-0.02425,0.0052,-0.02838
1.2969,-0.00719,10.27583,-0.02411,0.00453,-0.02864
1.2969,-0.00719,10.27583,-0.02411,0.00453,-0.02864
1.27415,0.00958,10.29379,-0.02478,0.004,-0.02891
1.27415,0.00958,10.29379,-0.02478,0.004,-0.02891
1.27415,0.00958,10.29379,-0.02478,0.004,-0.02891
1.28253,-0.01557,10.29978,-0.02438,0.00373,-0.02811
1.27056,-0.01557,10.26865,-0.02438,0.00466,-0.02771
1.27056,-0.01557,10.26865,-0.02438,0.00466,-0.02771
1.27056,-0.01557,10.26865,-0.02438,0.00466,-0.02771
1.27056,-0.01557,10.26865,-0.02438,0.00466,-0.02771
1.28134,-0.02156,10.33331,-0.02491,0.00466,-0.02811
1.28134,-0.02156,10.33331,-0.02491,0.00466,-0.02811
1.28134,-0.02156,10.33331,-0.02491,0.00466,-0.02811
1.28134,-0.02156,10.33331,-0.02491,0.00466,-0.02811
1.27894,-0.01078,10.28781,-0.02425,0.00386,-0.02838
1.27056,-0.02036,10.27583,-0.02438,0.0032,-0.02838
1.27056,-0.02036,10.27583,-0.02438,0.0032,-0.02838
1.27056,-0.02036,10.27583,-0.02438,0.0032,-0.02838
1.27176,-0.01198,10.32852,-0.02451,0.00413,-0.02811
1.27176,-0.01198,10.32852,-0.02451,0.00413,-0.02811
1.27655,-0.01557,10.29499,-0.02332,0.00453,-0.02825
1.27655,-0.01557,10.29499,-0.02332,0.00453,-0.02825
1.28373,-0.01677,10.289,-0.02372,0.00413,-0.02851
1.28373,-0.01677,10.289,-0.02372,0.00413,-0.02851
1.28373,-0.01677,10.289,-0.02372,0.00413,-0.02851
1.27655,-0.00838,10.289,-0.02478,0.00413,-0.02851
1.28134,-0.02036,10.3393,-0.02505,0.0032,-0.02878
1.28134,-0.02036,10.3393,-0.02505,0.0032,-0.02878
1.28134,-0.02036,10.3393,-0.02505,0.0032,-0.02878
1.28134,-0.02036,10.3393,-0.02505,0.0032,-0.02878
1.27176,-0.02156,10.32852,-0.02465,0.00333,-0.02825
1.27176,-0.02156,10.32852,-0.02465,0.00333,-0.02825
1.27176,-0.02156,10.32852,-0.02465,0.00333,-0.02825
1.27176,-0.02156,10.32852,-0.02465,0.00333,-0.02825
1.28732,-0.03593,10.29499,-0.02425,0.00386,-0.02838
1.28014,-0.02515,10.30816,-0.02411,0.00426,-0.02811
1.28014,-0.02515,10.30816,-0.02411,0.00426,-0.02811
1.28014,-0.02515,10.30816,-0.02411,0.00426,-0.02811
1.27295,-0.01677,10.3405,-0.02425,0.004,-0.02811
1.27295,-0.01677,10.3405,-0.02425,0.004,-0.02811
1.28253,-0.01317,10.31415,-0.02425,0.00373,-0.02798
1.28134,-0.0012,10.31176,-0.02372,0.00373,-0.02705
1.28134,-0.0012,10.31176,-0.02372,0.00373,-0.02705
1.28134,-0.0012,10.31176,-0.02372,0.00373,-0.02705
1.28134,-0.0012,10.31176,-0.02372,0.00373,-0.02705
1.28134,0.00599,10.28781,-0.02451,0.00413,-0.02811
1.28134,0.00599,10.28781,-0.02451,0.00413,-0.02811
1.28134,0.00599,10.28781,-0.02451,0.00413,-0.02811
1.28134,0.00599,10.28781,-0.02451,0.00413,-0.02811
1.28253,0.01078,10.31655,-0.02425,0.0036,-0.02825
1.29092,-0.00479,10.32134,-0.02411,0.00413,-0.02878
1.29092,-0.00479,10.32134,-0.02411,0.00413,-0.02878
1.29092,-0.00479,10.32134,-0.02411,0.00413,-0.02878
1.27176,-0.02874,10.32134,-0.02438,0.00426,-0.02864
1.27176,-0.02874,10.32134,-0.02438,0.00426,-0.02864
1.27415,-0.02635,10.29858,-0.02425,0.004,-0.02825
1.27415,-0.02635,10.29858,-0.02425,0.004,-0.02825
1.27894,-0.00599,10.33331,-0.02478,0.00453,-0.02785
1.27894,-0.00599,10.33331,-0.02478,0.00453,-0.02785
1.27894,-0.00599,10.33331,-0.02478,0.00453,-0.02785
1.27774,-0.01437,10.29978,-0.02438,0.00453,-0.02785
1.28613,-0.00359,10.32253,-0.02465,0.00466,-0.02851
1.28613,-0.00359,10.32253,-0.02465,0.00466,-0.02851
1.28613,-0.00359,10.32253,-0.02465,0.00466,-0.02851
1.28613,-0.00359,10.32253,-0.02465,0.00466,-0.02851
1.26936,-0.00838,10.2902,-0.02425,0.00453,-0.02825
1.26936,-0.00838,10.2902,-0.02425,0.00453,-0.02825
1.26936,-0.00838,10.2902,-0.02425,0.00453,-0.02825
1.26936,-0.00838,10.2902,-0.02425,0.00453,-0.02825
1.30529,-0.02156,10.31176,-0.02451,0.00426,-0.02864
1.28732,-0.01317,10.2926,-0.02425,0.00413,-0.02825
1.28732,-0.01317,10.2926,-0.02425,0.00413,-0.02825
1.28732,-0.01317,10.2926,-0.02425,0.00413,-0.02825
1.26337,-0.01078,10.28661,-0.02465,0.00413,-0.02838
1.26337,-0.01078,10.28661,-0.02465,0.00413,-0.02838
1.26457,-0.00719,10.30816,-0.02385,0.0044,-0.02851
1.26457,-0.00719,10.30816,-0.02385,0.0044,-0.02851
1.24781,-0.02275,10.3369,-0.02385,0.0048,-0.02745
1.24781,-0.02275,10.3369,-0.02385,0.0048,-0.02745
1.24781,-0.02275,10.3369,-0.02385,0.0048,-0.02745
1.26816,-0.00719,10.30218,-0.02398,0.00373,-0.02825
1.28014,-0.00719,10.28781,-0.02411,0.00386,-0.02878
1.28014,-0.00719,10.28781,-0.02411,0.00386,-0.02878
1.28014,-0.00719,10.28781,-0.02411,0.00386,-0.02878
1.25978,-0.01916,10.31056,-0.02411,0.00306,-0.02918
1.26816,-0.02156,10.31655,-0.02385,0.0032,-0.02838
1.26816,-0.02156,10.31655,-0.02385,0.0032,-0.02838
1.26816,-0.02156,10.31655,-0.02385,0.0032,-0.02838
1.26337,-0.02395,10.32134,-0.02465,0.00373,-0.02838
1.26337,-0.02395,10.32134,-0.02465,0.00373,-0.02838
1.2514,-0.0024,10.31176,-0.02451,0.004,-0.02838
1.2514,-0.0024,10.31176,-0.02451,0.004,-0.02838
1.27894,-0.00838,10.29978,-0.02465,0.00386,-0.02785
1.27894,-0.00838,10.29978,-0.02465,0.00386,-0.02785
1.27894,-0.00838,10.29978,-0.02465,0.00386,-0.02785
1.27655,-0.02156,10.32493,-0.02438,0.0036,-0.02785
1.27295,-0.02036,10.30218,-0.02465,0.00426,-0.02851
1.27295,-0.02036,10.30218,-0.02465,0.00426,-0.02851
1.27295,-0.02036,10.30218,-0.02465,0.00426,-0.02851
1.27295,-0.02036,10.30218,-0.02465,0.00426,-0.02851
1.27655,-0.00359,10.30816,-0.02451,0.00386,-0.02811
1.27655,-0.00359,10.30816,-0.02451,0.00386,-0.02811
1.27655,-0.00359,10.30816,-0.02451,0.00386,-0.02811
1.27655,-0.00359,10.30816,-0.02451,0.00386,-0.02811
1.27894,-0.00599,10.32134,-0.02358,0.00373,-0.02785
1.27056,-0.01078,10.33092,-0.02425,0.00386,-0.02798
1.27056,-0.01078,10.33092,-0.02425,0.00386,-0.02798
1.27056,-0.01078,10.33092,-0.02425,0.00386,-0.02798
1.27176,-0.01557,10.31176,-0.02465,0.00453,-0.02771
1.27176,-0.01557,10.31176,-0.02465,0.00453,-0.02771
1.27774,-0.01437,10.32253,-0.02451,0.00413,-0.02798
1.27774,-0.01437,10.32253,-0.02451,0.00413,-0.02798
1.28373,0.0,10.33212,-0.02398,0.0044,-0.02825
1.28373,0.0,10.33212,-0.02398,0.0044,-0.02825
1.28373,0.0,10.33212,-0.02398,0.0044,-0.02825
1.26098,-0.00359,10.28661,-0.02425,0.00413,-0.02771
1.27056,-0.00838,10.289,-0.02398,0.00386,-0.02838
1.27056,-0.00838,10.289,-0.02398,0.00386,-0.02838
1.27056,-0.00838,10.289,-0.02398,0.00386,-0.02838
1.27056,-0.00838,10.289,-0.02398,0.00386,-0.02838
1.27176,-0.03353,10.30098,-0.02451,0.0048,-0.02811
1.27176,-0.03353,10.30098,-0.02451,0.0048,-0.02811
1.27176,-0.03353,10.30098,-0.02451,0.0048,-0.02811
1.24781,-0.02635,10.30936,-0.02438,0.0044,-0.02838
1.24781,-0.02635,10.30936,-0.02438,0.0044,-0.02838
1.25739,0.0024,10.30457,-0.02385,0.00493,-0.02811
1.25739,0.0024,10.30457,-0.02385,0.00493,-0.02811
1.2514,-0.02635,10.30457,-0.02425,0.00453,-0.02851
1.2514,-0.02635,10.30457,-0.02425,0.00453,-0.02851
1.2514,-0.02635,10.30457,-0.02425,0.00453,-0.02851
1.27295,-0.00479,10.30697,-0.02411,0.00333,-0.02851
1.27176,-0.01437,10.30816,-0.02411,0.0036,-0.02904
1.27176,-0.01437,10.30816,-0.02411,0.0036,-0.02904
1.27176,-0.01437,10.30816,-0.02411,0.0036,-0.02904
1.27176,-0.01437,10.30816,-0.02411,0.0036,-0.02904
1.28972,-0.01317,10.2914,-0.02425,0.00373,-0.02838
1.28972,-0.01317,10.2914,-0.02425,0.00373,-0.02838
1.28972,-0.01317,10.2914,-0.02425,0.00373,-0.02838
1.28972,-0.01317,10.2914,-0.02425,0.00373,-0.02838
1.26936,-0.03952,10.26745,-0.02465,0.00386,-0.02811
1.28134,-0.02994,10.31894,-0.02465,0.00333,-0.02878
1.28134,-0.02994,10.31894,-0.02465,0.00333,-0.02878
1.28134,-0.02994,10.31894,-0.02465,0.00333,-0.02878
1.29451,-0.02156,10.31655,-0.02465,0.004,-0.02825
1.29451,-0.02156,10.31655,-0.02465,0.004,-0.02825
1.29092,-0.02395,10.29619,-0.02438,0.0048,-0.02838
1.29092,-0.02395,10.29619,-0.02438,0.0048,-0.02838
1.28493,-0.02275,10.30098,-0.02425,0.00453,-0.02878
1.28493,-0.02275,10.30098,-0.02425,0.00453,-0.02878
1.27655,-0.01916,10.32373,-0.02411,0.00426,-0.02851
1.27655,-0.01916,10.32373,-0.02411,0.00426,-0.02851
1.28014,-0.01916,10.30577,-0.02398,0.00493,-0.02811
1.28014,-0.01916,10.30577,-0.02398,0.00493,-0.02811
1.28014,-0.01916,10.30577,-0.02398,0.00493,-0.02811
1.27535,-0.01557,10.32253,-0.02411,0.00506,-0.02851
1.28972,0.0012,10.27344,-0.02438,0.00426,-0.02878
1.28972,0.0012,10.27344,-0.02438,0.00426,-0.02878
1.28972,0.0012,10.27344,-0.02438,0.00426,-0.02878
1.28972,0.0012,10.27344,-0.02438,0.00426,-0.02878
1.28972,-0.01916,10.29499,-0.02385,0.00426,-0.02825
1.28972,-0.01916,10.29499,-0.02385,0.00426,-0.02825
1.28972,-0.01916,10.29499,-0.02385,0.00426,-0.02825
1.2993,-0.00719,10.29739,-0.02385,0.00346,-0.02771
1.2993,-0.00719,10.29739,-0.02385,0.00346,-0.02771
1.28493,-0.02156,10.32373,-0.02385,0.00426,-0.02838
1.28493,-0.02156,10.32373,-0.02385,0.00426,-0.02838
1.2993,0.0,10.29978,-0.02451,0.0044,-0.02825
1.2993,0.0,10.29978,-0.02451,0.0044,-0.02825
1.2993,0.0,10.29978,-0.02451,0.0044,-0.02825
1.29331,-0.00719,10.31894,-0.02438,0.00453,-0.02864
1.28253,-0.00958,10.33092,-0.02385,0.00506,-0.02878
1.28253,-0.00958,10.33092,-0.02385,0.00506,-0.02878
1.28253,-0.00958,10.33092,-0.02385,0.00506,-0.02878
1.28253,-0.00958,10.33092,-0.02385,0.00506,-0.02878
1.26457,-0.01078,10.32253,-0.02385,0.0044,-0.02811
1.26457,-0.01078,10.32253,-0.02385,0.0044,-0.02811
1.26457,-0.01078,10.32253,-0.02385,0.0044,-0.02811
1.26457,-0.01078,10.32253,-0.02385,0.0044,-0.02811
1.27295,-0.01198,10.30218,-0.02425,0.00413,-0.02825
1.27894,-0.03473,10.32373,-0.02425,0.00413,-0.02878
1.27894,-0.03473,10.32373,-0.02425,0.00413,-0.02878
1.27894,-0.03473,10.32373,-0.02425,0.00413,-0.02878
1.29451,-0.03353,10.31655,-0.02411,0.0044,-0.02851
1.29451,-0.03353,10.31655,-0.02411,0.0044,-0.02851
1.29451,-0.03832,10.33212,-0.02438,0.00453,-0.02771
1.29451,-0.03832,10.33212,-0.02438,0.00453,-0.02771
1.26697,-0.01677,10.32613,-0.02411,0.0044,-0.02771
1.26697,-0.01677,10.32613,-0.02411,0.0044,-0.02771
1.26697,-0.01677,10.32613,-0.02411,0.0044,-0.02771
1.27415,-0.00479,10.33331,-0.02411,0.00413,-0.02825
1.28253,-0.00838,10.29619,-0.02438,0.00386,-0.02851
1.28253,-0.00838,10.29619,-0.02438,0.00386,-0.02851
1.28253,-0.00838,10.29619,-0.02438,0.00386,-0.02851
1.28253,-0.00838,10.29619,-0.02438,0.00386,-0.02851
1.28493,-0.00479,10.32134,-0.02425,0.00466,-0.02864
1.28493,-0.00479,10.32134,-0.02425,0.00466,-0.02864
1.28493,-0.00479,10.32134,-0.02425,0.00466,-0.02864
1.28493,-0.00479,10.32134,-0.02425,0.00466,-0.02864
1.26577,0.00359,10.26386,-0.02411,0.00493,-0.02825
1.27894,-0.01677,10.32613,-0.02398,0.004,-0.02851
1.27894,-0.01677,10.32613,-0.02398,0.004,-0.02851
1.27894,-0.01677,10.32613,-0.02398,0.004,-0.02851
1.28972,-0.02754,10.32373,-0.02465,0.00346,-0.02838
1.28972,-0.02754,10.32373,-0.02465,0.00346,-0.02838
1.28732,-0.02275,10.32493,-0.02451,0.004,-0.02825
1.28493,-0.02036,10.29978,-0.02478,0.00413,-0.02771
1.28493,-0.02036,10.29978,-0.02478,0.00413,-0.02771
1.28493,-0.02036,10.29978,-0.02478,0.00413,-0.02771
1.28493,-0.02036,10.29978,-0.02478,0.00413,-0.02771
1.2969,-0.02635,10.31415,-0.02505,0.0044,-0.02798
1.2969,-0.02635,10.31415,-0.02505,0.0044,-0.02798
1.2969,-0.02635,10.31415,-0.02505,0.0044,-0.02798
1.2969,-0.02635,10.31415,-0.02505,0.0044,-0.02798
1.29211,-0.01078,10.32732,-0.02438,0.0044,-0.02771
1.28134,-0.01437,10.28421,-0.02411,0.0044,-0.02825
1.28134,-0.01437,10.28421,-0.02411,0.0044,-0.02825
1.28134,-0.01437,10.28421,-0.02411,0.0044,-0.02825
1.30529,-0.00958,10.2926,-0.02398,0.00466,-0.02785
1.30529,-0.00958,10.2926,-0.02398,0.00466,-0.02785
1.28613,-0.01557,10.30816,-0.02425,0.00386,-0.02771
1.28613,-0.01557,10.30816,-0.02425,0.00386,-0.02771
1.28014,-0.02275,10.32613,-0.02465,0.00386,-0.02864
1.28014,-0.02275,10.32613,-0.02465,0.00386,-0.02864
1.28014,-0.02275,10.32613,-0.02465,0.00386,-0.02864
1.29211,-0.00958,10.28661,-0.02425,0.00293,-0.02825
1.27894,-0.02515,10.29499,-0.02451,0.004,-0.02798
1.27894,-0.02515,10.29499,-0.02451,0.004,-0.02798
1.27894,-0.02515,10.29499,-0.02451,0.004,-0.02798
1.27894,-0.02515,10.29499,-0.02451,0.004,-0.02798
1.28732,-0.02635,10.289,-0.02465,0.00466,-0.02705
1.28732,-0.02635,10.289,-0.02465,0.00466,-0.02705
1.28732,-0.02635,10.289,-0.02465,0.00466,-0.02705
1.28732,-0.02635,10.289,-0.02465,0.00466,-0.02705
1.26816,-0.01557,10.28421,-0.02438,0.00466,-0.02731
1.26936,-0.01916,10.27463,-0.02465,0.0036,-0.02891
1.26936,-0.01916,10.27463,-0.02465,0.0036,-0.02891
1.26936,-0.01916,10.27463,-0.02465,0.0036,-0.02891
1.81423,0.01916,10.28182,-0.02451,0.00413,-0.02891
1.81423,0.01916,10.28182,-0.02451,0.00413,-0.02891
3.02132,0.25387,10.25068,-0.02944,0.09593,-0.01585
3.02132,0.25387,10.25068,-0.02944,0.09593,-0.01585
0.85263,-0.46463,10.29858,-0.04077,0.28631,-0.02545
0.85263,-0.46463,10.29858,-0.04077,0.28631,-0.02545
0.85263,-0.46463,10.29858,-0.04077,0.28631,-0.02545
0.61432,-0.06227,10.27823,-0.03264,0.29524,-0.01985
0.61432,-0.06227,10.27823,-0.03264,0.29524,-0.01985
0.61432,-0.06227,10.27823,-0.03264,0.29524,-0.01985
0.61432,-0.06227,10.27823,-0.03264,0.29524,-0.01985
2.43214,0.34129,10.3381,-0.03317,0.26446,-0.02918
1.65376,-0.08742,10.2435,-0.0425,0.2983,-0.04263
1.65376,-0.08742,10.2435,-0.0425,0.2983,-0.04263
1.65376,-0.08742,10.2435,-0.0425,0.2983,-0.04263
-0.097,-0.22393,10.26386,-0.04397,0.31776,-0.03557
-0.097,-0.22393,10.26386,-0.04397,0.31776,-0.03557
0.48499,-0.12933,10.28541,-0.03664,0.30243,-0.02984
0.48499,-0.12933,10.28541,-0.03664,0.30243,-0.02984
1.67172,0.04191,10.32134,-0.03198,0.29391,-0.02145
1.67172,0.04191,10.32134,-0.03198,0.29391,-0.02145
1.67172,0.04191,10.32134,-0.03198,0.29391,-0.02145
2.03936,0.26106,10.30337,-0.03251,0.28605,-0.03211
0.57121,-0.0503,10.23751,-0.04143,0.31856,-0.04477
0.57121,-0.0503,10.23751,-0.04143,0.31856,-0.04477
0.57121,-0.0503,10.23751,-0.04143,0.31856,-0.04477
0.57121,-0.0503,10.23751,-0.04143,0.31856,-0.04477
1.11488,-0.194,10.27463,-0.04117,0.30323,-0.02718
1.11488,-0.194,10.27463,-0.04117,0.30323,-0.02718
1.11488,-0.194,10.27463,-0.04117,0.30323,-0.02718
1.11488,-0.194,10.27463,-0.04117,0.30323,-0.02718
1.80824,0.0,10.32134,-0.03304,0.30683,-0.02665
1.36516,0.15568,10.25787,-0.02998,0.29018,-0.03531
1.36516,0.15568,10.25787,-0.02998,0.29018,-0.03531
1.36516,0.15568,10.25787,-0.02998,0.29018,-0.03531
-0.0467,0.00599,10.29858,-0.03744,0.3055,-0.0417
-0.0467,0.00599,10.29858,-0.03744,0.3055,-0.0417
0.08263,-0.02635,10.34649,-0.04357,0.28925,-0.02944
0.08263,-0.02635,10.34649,-0.04357,0.28925,-0.02944
1.61664,-0.11496,10.27463,-0.04237,0.28325,-0.03344
1.61664,-0.11496,10.27463,-0.04237,0.28325,-0.03344
1.61664,-0.11496,10.27463,-0.04237,0.28325,-0.03344
1.62622,-0.19879,10.25667,-0.03744,0.31136,-0.03384
0.97238,0.11616,10.26386,-0.02998,0.3015,-0.03357
0.97238,0.11616,10.26386,-0.02998,0.3015,-0.03357
0.97238,0.11616,10.26386,-0.02998,0.3015,-0.03357
0.97238,0.11616,10.26386,-0.02998,0.3015,-0.03357
0.28141,0.08143,10.3884,-0.04064,0.29431,-0.02998
0.28141,0.08143,10.3884,-0.04064,0.29431,-0.02998
0.28141,0.08143,10.3884,-0.04064,0.29431,-0.02998
0.28141,0.08143,10.3884,-0.04064,0.29431,-0.02998
1.86333,-0.14969,10.27104,-0.04423,0.29684,-0.02691
1.16877,-0.27303,10.21835,-0.0417,0.32362,-0.02811
1.16877,-0.27303,10.21835,-0.0417,0.32362,-0.02811
1.16877,-0.27303,10.21835,-0.0417,0.32362,-0.02811
0.54726,0.00599,10.23272,-0.03118,0.2999,-0.02918
0.54726,0.00599,10.23272,-0.03118,0.2999,-0.02918
-0.98914,0.00599,10.3884,-0.03304,0.31136,-0.03477
-0.98914,0.00599,10.3884,-0.03304,0.31136,-0.03477
0.35566,0.16047,10.4375,-0.03717,0.27725,-0.02625
0.35566,0.16047,10.4375,-0.03717,0.27725,-0.02625
0.35566,0.16047,10.4375,-0.03717,0.27725,-0.02625
1.83099,-0.01916,10.27942,-0.0433,0.28725,-0.02825
0.95681,-0.25746,10.17285,-0.04303,0.31722,-0.03491
0.95681,-0.25746,10.17285,-0.04303,0.31722,-0.03491
0.95681,-0.25746,10.17285,-0.04303,0.31722,-0.03491
-0.30896,-0.18561,10.2411,-0.03477,0.30816,-0.02931
-0.7209,0.00838,10.31295,-0.03304,0.30577,-0.03531
-0.7209,0.00838,10.31295,-0.03304,0.30577,-0.03531
-0.7209,0.00838,10.31295,-0.03304,0.30577,-0.03531
0.75204,0.13292,10.37283,-0.03531,0.29138,-0.02545
0.75204,0.13292,10.37283,-0.03531,0.29138,-0.02545
1.68849,0.03832,10.35247,-0.04183,0.31389,-0.02438
1.68849,0.03832,10.35247,-0.04183,0.31389,-0.02438
0.43829,-0.19998,10.17764,-0.0445,0.3444,-0.02611
0.43829,-0.19998,10.17764,-0.0445,0.3444,-0.02611
0.43829,-0.19998,10.17764,-0.0445,0.3444,-0.02611
-0.867,-0.19998,10.21236,-0.03837,0.31203,-0.02198
-0.47781,-0.00838,10.31295,-0.03451,0.29471,-0.02811
-0.47781,-0.00838,10.31295,-0.03451,0.29471,-0.02811
-0.47781,-0.00838,10.31295,-0.03451,0.29471,-0.02811
-0.47781,-0.00838,10.31295,-0.03451,0.29471,-0.02811
1.2514,0.06586,10.30337,-0.0385,0.31802,-0.02491
1.2514,0.06586,10.30337,-0.0385,0.31802,-0.02491
1.2514,0.06586,10.30337,-0.0385,0.31802,-0.02491
1.2514,0.06586,10.30337,-0.0385,0.31802,-0.02491
-0.27423,-0.24309,10.15967,-0.04277,0.3504,-0.02825
-0.87538,-0.11017,10.22194,-0.03877,0.30084,-0.02638
-0.87538,-0.11017,10.22194,-0.03877,0.30084,-0.02638
-0.87538,-0.11017,10.22194,-0.03877,0.30084,-0.02638
-0.10658,-0.05269,10.29739,-0.03744,0.29404,-0.03344
-0.10658,-0.05269,10.29739,-0.03744,0.29404,-0.03344
1.28134,-0.07904,10.21236,-0.03664,0.30137,-0.03531
1.28134,-0.07904,10.21236,-0.03664,0.30137,-0.03531
0.08023,-0.06107,10.27703,-0.03744,0.33774,-0.03624
0.08023,-0.06107,10.27703,-0.03744,0.33774,-0.03624
0.08023,-0.06107,10.27703,-0.03744,0.33774,-0.03624
-0.47661,0.00479,10.21955,-0.02891,0.1724,-0.09406
-0.47661,0.00479,10.21955,-0.02891,0.1724,-0.09406
-0.47661,0.00479,10.21955,-0.02891,0.1724,-0.09406
-0.47661,0.00479,10.21955,-0.02891,0.1724,-0.09406
0.20717,0.02156,10.26146,-0.03104,0.15228,-0.09646
0.58558,-0.13771,10.2435,-0.03331,0.15948,-0.10605
0.58558,-0.13771,10.2435,-0.03331,0.15948,-0.10605
0.58558,-0.13771,10.2435,-0.03331,0.15948,-0.10605
0.24549,-0.14011,10.26266,-0.03051,0.16268,-0.10698
0.24549,-0.14011,10.26266,-0.03051,0.16268,-0.10698
-0.87658,-0.17364,10.29499,-0.02705,0.18066,-0.11378
-0.87658,-0.17364,10.29499,-0.02705,0.18066,-0.11378
-0.80353,-0.06347,10.26745,-0.02425,0.15881,-0.10605
-0.80353,-0.06347,10.26745,-0.02425,0.15881,-0.10605
-0.80353,-0.06347,10.26745,-0.02425,0.15881,-0.10605
0.50295,0.12694,10.21715,-0.02598,0.14709,-0.09966
1.04423,-0.05868,10.17764,-0.03584,0.20744,-0.0854
1.04423,-0.05868,10.17764,-0.03584,0.20744,-0.0854
1.04423,-0.05868,10.17764,-0.03584,0.20744,-0.0854
1.04423,-0.05868,10.17764,-0.03584,0.20744,-0.0854
-1.51365,-0.25148,10.3381,-0.03917,0.33095,-0.03717
-1.51365,-0.25148,10.3381,-0.03917,0.33095,-0.03717
-1.51365,-0.25148,10.3381,-0.03917,0.33095,-0.03717
-1.51365,-0.25148,10.3381,-0.03917,0.33095,-0.03717
-0.74126,-0.06467,10.36205,-0.03264,0.30097,-0.02785
0.86939,0.08742,10.13572,-0.03211,0.27765,-0.02838
0.86939,0.08742,10.13572,-0.03211,0.27765,-0.02838
0.44547,0.01437,9.98124,-0.03864,0.29964,-0.0437
0.44547,0.01437,9.98124,-0.03864,0.29964,-0.0437
0.44547,0.01437,9.98124,-0.03864,0.29964,-0.0437
-1.22386,-0.14729,10.16806,-0.04596,0.32255,-0.03144
-1.22386,-0.14729,10.16806,-0.04596,0.32255,-0.03144
-1.18913,-0.22034,10.25547,-0.04596,0.30483,-0.03078
-1.18913,-0.22034,10.25547,-0.04596,0.30483,-0.03078
-1.18913,-0.22034,10.25547,-0.04596,0.30483,-0.03078
1.0107,0.06347,10.23033,-0.03304,0.28338,-0.03051
1.0107,0.06347,10.23033,-0.03304,0.28338,-0.03051
1.0107,0.06347,10.23033,-0.03304,0.28338,-0.03051
1.0107,0.06347,10.23033,-0.03304,0.28338,-0.03051
-0.25746,-0.10059,9.99082,-0.03597,0.32229,-0.04636
-1.74357,0.01437,10.16686,-0.03984,0.32189,-0.02998
-1.74357,0.01437,10.16686,-0.03984,0.32189,-0.02998
-1.74357,0.01437,10.16686,-0.03984,0.32189,-0.02998
-1.05022,-0.13891,10.16327,-0.04583,0.3103,-0.02411
-1.05022,-0.13891,10.16327,-0.04583,0.3103,-0.02411
0.31375,-0.21435,10.1477,-0.04343,0.29724,-0.02651
0.31375,-0.21435,10.1477,-0.04343,0.29724,-0.02651
0.51253,-0.07904,10.15728,-0.0373,0.28618,-0.02918
0.51253,-0.07904,10.15728,-0.0373,0.28618,-0.02918
0.51253,-0.07904,10.15728,-0.0373,0.28618,-0.02918
-0.5305,-0.097,10.04711,-0.03611,0.31443,-0.04197
-1.7771,-0.03114,10.15488,-0.0389,0.32095,-0.02598
-1.7771,-0.03114,10.15488,-0.0389,0.32095,-0.02598
-1.7771,-0.03114,10.15488,-0.0389,0.32095,-0.02598
-1.7771,-0.03114,10.15488,-0.0389,0.32095,-0.02598
0.46703,-0.16047,10.09501,-0.04183,0.29417,-0.03198
0.46703,-0.16047,10.09501,-0.04183,0.29417,-0.03198
0.46703,-0.16047,10.09501,-0.04183,0.29417,-0.03198
0.46703,-0.16047,10.09501,-0.04183,0.29417,-0.03198
0.11855,-0.02515,10.13213,-0.04064,0.29697,-0.03424
-1.73998,-0.25627,10.12135,-0.04223,0.32522,-0.0449
-1.73998,-0.25627,10.12135,-0.04223,0.32522,-0.0449
-1.49449,-0.02515,10.23033,-0.04077,0.31576,-0.02825
-1.49449,-0.02515,10.23033,-0.04077,0.31576,-0.02825
-1.49449,-0.02515,10.23033,-0.04077,0.31576,-0.02825
-0.21914,-0.15568,10.12974,-0.04064,0.31416,-0.02385
0.19519,-0.11017,10.00879,-0.03944,0.32628,-0.03051
0.19519,-0.11017,10.00879,-0.03944,0.32628,-0.03051
0.19519,-0.11017,10.00879,-0.03944,0.32628,-0.03051
0.19519,-0.11017,10.00879,-0.03944,0.32628,-0.03051
-2.0681,-0.06586,10.18722,-0.0405,0.31576,-0.04157
-2.0681,-0.06586,10.18722,-0.0405,0.31576,-0.04157
-2.0681,-0.06586,10.18722,-0.0405,0.31576,-0.04157
-2.0681,-0.06586,10.18722,-0.0405,0.31576,-0.04157
0.28261,-0.11137,10.08303,-0.04157,0.29724,-0.02771
0.28261,-0.11137,10.08303,-0.04157,0.29724,-0.02771
0.28261,-0.11137,10.08303,-0.04157,0.29724,-0.02771
0.28261,-0.11137,10.08303,-0.04157,0.29724,-0.02771
-0.24549,-0.28022,9.99082,-0.0421,0.32535,-0.03664
-0.92328,-0.07425,9.97526,-0.03651,0.31376,-0.03531
-0.92328,-0.07425,9.97526,-0.03651,0.31376,-0.03531
-0.92328,-0.07425,9.97526,-0.03651,0.31376,-0.03531
-2.4549,-0.0982,10.20278,-0.03864,0.31856,-0.04317
-2.4549,-0.0982,10.20278,-0.03864,0.31856,-0.04317
-1.11129,-0.00719,10.23152,-0.0401,0.29817,-0.03064
0.30177,-0.11975,10.00998,-0.0437,0.31016,-0.02558
0.30177,-0.11975,10.00998,-0.0437,0.31016,-0.02558
0.30177,-0.11975,10.00998,-0.0437,0.31016,-0.02558
0.30177,-0.11975,10.00998,-0.0437,0.31016,-0.02558
-1.96392,-0.28141,9.99681,-0.03917,0.31309,-0.02878
-1.96392,-0.28141,9.99681,-0.03917,0.31309,-0.02878
-1.96392,-0.28141,9.99681,-0.03917,0.31309,-0.02878
-1.96392,-0.28141,9.99681,-0.03917,0.31309,-0.02878
-2.26928,-0.12095,10.10938,-0.03837,0.3007,-0.0397
-0.91011,-0.05988,10.13213,-0.03877,0.28898,-0.03171
-0.91011,-0.05988,10.13213,-0.03877,0.28898,-0.03171
-0.91011,-0.05988,10.13213,-0.03877,0.28898,-0.03171
-0.00958,-0.07065,10.00879,-0.0405,0.30523,-0.02904
-0.00958,-0.07065,10.00879,-0.0405,0.30523,-0.02904
-0.98316,-0.17005,9.86868,-0.04277,0.33188,-0.03491
-0.98316,-0.17005,9.86868,-0.04277,0.33188,-0.03491
-2.27168,-0.19519,9.94412,-0.04024,0.29884,-0.03091
-2.27168,-0.19519,9.94412,-0.04024,0.29884,-0.03091
-2.27168,-0.19519,9.94412,-0.04024,0.29884,-0.03091
-2.02738,-0.11736,10.07345,-0.0401,0.29191,-0.03944
-0.44787,-0.17963,9.97645,-0.03957,0.28378,-0.03384
-0.44787,-0.17963,9.97645,-0.03957,0.28378,-0.03384
-0.44787,-0.17963,9.97645,-0.03957,0.28378,-0.03384
-0.28141,-0.08023,10.02555,-0.03957,0.31669,-0.02984
-1.84536,-0.23232,9.90341,-0.0425,0.35373,-0.02731
-1.84536,-0.23232,9.90341,-0.0425,0.35373,-0.02731
-1.84536,-0.23232,9.90341,-0.0425,0.35373,-0.02731
-2.64889,-0.12933,9.93933,-0.03957,0.3051,-0.02598
-2.64889,-0.12933,9.93933,-0.03957,0.3051,-0.02598
-1.78309,-0.0982,10.04711,-0.03917,0.28218,-0.03251
-1.78309,-0.0982,10.04711,-0.03917,0.28218,-0.03251
-0.23351,-0.17843,9.83874,-0.0413,0.28525,-0.03331
-0.23351,-0.17843,9.83874,-0.0413,0.28525,-0.03331
-0.23351,-0.17843,9.83874,-0.0413,0.28525,-0.03331
-0.62151,-0.11257,9.89263,-0.0421,0.31816,-0.02851
-2.85007,-0.31614,9.98124,-0.04317,0.34827,-0.02478
-2.85007,-0.31614,9.98124,-0.04317,0.34827,-0.02478
-2.85007,-0.31614,9.98124,-0.04317,0.34827,-0.02478
-2.85007,-0.31614,9.98124,-0.04317,0.34827,-0.02478
-1.06818,-0.11736,9.88904,-0.0377,0.28178,-0.02904
-1.06818,-0.11736,9.88904,-0.0377,0.28178,-0.02904
-1.06818,-0.11736,9.88904,-0.0377,0.28178,-0.02904
-1.06818,-0.11736,9.88904,-0.0377,0.28178,-0.02904
-0.28022,-0.13891,9.71899,-0.03957,0.30297,-0.04117
-1.21068,-0.1449,9.73456,-0.0425,0.34147,-0.03011
-1.21068,-0.1449,9.73456,-0.0425,0.34147,-0.03011
-1.21068,-0.1449,9.73456,-0.0425,0.34147,-0.03011
-3.21651,-0.26225,10.03753,-0.04437,0.3512,-0.02465
-3.21651,-0.26225,10.03753,-0.04437,0.3512,-0.02465
-2.57465,-0.19879,10.03633,-0.04157,0.31003,-0.02132
-0.8634,-0.13173,9.82796,-0.0385,0.28738,-0.02651
-0.8634,-0.13173,9.82796,-0.0385,0.28738,-0.02651
-0.8634,-0.13173,9.82796,-0.0385,0.28738,-0.02651
-0.8634,-0.13173,9.82796,-0.0385,0.28738,-0.02651
-1.73639,-0.20956,9.7118,-0.04237,0.35519,-0.02318
-1.73639,-0.20956,9.7118,-0.04237,0.35519,-0.02318
-1.73639,-0.20956,9.7118,-0.04237,0.35519,-0.02318
-1.73639,-0.20956,9.7118,-0.04237,0.35519,-0.02318
-3.43087,-0.2395,10.01956,-0.0441,0.35999,-0.01972
-2.19743,-0.13532,10.02435,-0.0397,0.30403,-0.02478
-2.19743,-0.13532,10.02435,-0.0397,0.30403,-0.02478
-2.19743,-0.13532,10.02435,-0.0397,0.30403,-0.02478
-0.71252,-0.07784,9.78246,-0.03904,0.29271,-0.02531
-0.71252,-0.07784,9.78246,-0.03904,0.29271,-0.02531
-1.14602,-0.21316,9.62558,-0.04143,0.32069,-0.04503
-1.14602,-0.21316,9.62558,-0.04143,0.32069,-0.04503
-2.99138,-0.31135,9.81599,-0.0437,0.35066,-0.02998
-2.99138,-0.31135,9.81599,-0.0437,0.35066,-0.02998
-2.99138,-0.31135,9.81599,-0.0437,0.35066,-0.02998
-3.20813,-0.25267,9.96687,-0.04437,0.34001,-0.02305
-1.80345,-0.19998,9.89622,-0.03984,0.3071,-0.02478
-1.80345,-0.19998,9.89622,-0.03984,0.3071,-0.02478
-1.80345,-0.19998,9.89622,-0.03984,0.3071,-0.02478
-1.80345,-0.19998,9.89622,-0.03984,0.3071,-0.02478
-1.53401,-0.14849,9.50104,-0.0393,0.32202,-0.03917
-1.53401,-0.14849,9.50104,-0.0393,0.32202,-0.03917
-1.53401,-0.14849,9.50104,-0.0393,0.32202,-0.03917
-1.53401,-0.14849,9.50104,-0.0393,0.32202,-0.03917
-3.61887,-0.21675,9.80042,-0.0429,0.33215,-0.02372
-2.90396,-0.21555,9.88305,-0.04357,0.31443,-0.02411
-2.90396,-0.21555,9.88305,-0.04357,0.31443,-0.02411
-1.38911,-0.26345,9.70103,-0.04077,0.29777,-0.03051
-1.38911,-0.26345,9.70103,-0.04077,0.29777,-0.03051
-1.38911,-0.26345,9.70103,-0.04077,0.29777,-0.03051
-0.92328,-0.03952,9.75012,-0.03744,0.29284,-0.03024
-2.34472,-0.25866,9.56092,-0.04037,0.33081,-0.04237
-2.34472,-0.25866,9.56092,-0.04037,0.33081,-0.04237
-2.34472,-0.25866,9.56092,-0.04037,0.33081,-0.04237
-2.34472,-0.25866,9.56092,-0.04037,0.33081,-0.04237
-2.61177,-0.31135,9.67827,-0.0433,0.32002,-0.02558
-2.61177,-0.31135,9.67827,-0.0433,0.32002,-0.02558
-2.61177,-0.31135,9.67827,-0.0433,0.32002,-0.02558
-2.61177,-0.31135,9.67827,-0.0433,0.32002,-0.02558
-1.23942,-0.21914,9.4723,-0.04064,0.3067,-0.02864
-1.20469,-0.14131,9.57289,-0.03837,0.29417,-0.02398
-1.20469,-0.14131,9.57289,-0.03837,0.29417,-0.02398
-1.20469,-0.14131,9.57289,-0.03837,0.29417,-0.02398
-3.26202,-0.17484,9.74893,-0.0409,0.32402,-0.03704
-3.26202,-0.17484,9.74893,-0.0409,0.32402,-0.03704
-3.49314,-0.06826,9.77288,-0.0417,0.30896,-0.02665
-3.49314,-0.06826,9.77288,-0.0417,0.30896,-0.02665
-2.01661,-0.1904,9.54415,-0.0421,0.29777,-0.02944
-2.01661,-0.1904,9.54415,-0.0421,0.29777,-0.02944
-2.01661,-0.1904,9.54415,-0.0421,0.29777,-0.02944
-1.37474,-0.33171,9.35135,-0.04263,0.30923,-0.03091
-1.27415,-0.18082,9.53817,-0.03877,0.29937,-0.02372
-1.27415,-0.18082,9.53817,-0.03877,0.29937,-0.02372
-1.27415,-0.18082,9.53817,-0.03877,0.29937,-0.02372
-1.27415,-0.18082,9.53817,-0.03877,0.29937,-0.02372
-3.58774,-0.05269,9.81838,-0.03957,0.32042,-0.03158
-3.58774,-0.05269,9.81838,-0.03957,0.32042,-0.03158
-3.58774,-0.05269,9.81838,-0.03957,0.32042,-0.03158
-3.58774,-0.05269,9.81838,-0.03957,0.32042,-0.03158
-2.00583,-0.1904,9.41722,-0.04223,0.30736,-0.02931
-1.63221,-0.31375,9.40404,-0.04437,0.32375,-0.02372
-1.63221,-0.31375,9.40404,-0.04437,0.32375,-0.02372
-2.09804,-0.35806,9.55134,-0.04197,0.31536,-0.01799
-2.09804,-0.35806,9.55134,-0.04197,0.31536,-0.01799
-2.09804,-0.35806,9.55134,-0.04197,0.31536,-0.01799
-3.73503,-0.16286,9.78725,-0.03997,0.31949,-0.03744
-3.16382,-0.10179,9.64474,-0.04037,0.31336,-0.03544
-3.16382,-0.10179,9.64474,-0.04037,0.31336,-0.03544
-3.16382,-0.10179,9.64474,-0.04037,0.31336,-0.03544
-3.16382,-0.10179,9.64474,-0.04037,0.31336,-0.03544
-2.13875,-0.36045,9.4256,-0.04543,0.34587,-0.01705
-2.13875,-0.36045,9.4256,-0.04543,0.34587,-0.01705
-2.13875,-0.36045,9.4256,-0.04543,0.34587,-0.01705
-2.13875,-0.36045,9.4256,-0.04543,0.34587,-0.01705
-3.03329,-0.38919,9.60044,-0.04143,0.32775,-0.02265
-3.82724,-0.2419,9.67229,-0.03917,0.32375,-0.0421
-3.82724,-0.2419,9.67229,-0.03917,0.32375,-0.0421
-3.82724,-0.2419,9.67229,-0.03917,0.32375,-0.0421
-2.9327,-0.05988,9.53338,-0.03957,0.31456,-0.0373
-2.9327,-0.05988,9.53338,-0.03957,0.31456,-0.0373
-1.79986,-0.12454,9.26873,-0.04303,0.31909,-0.02465
-1.79986,-0.12454,9.26873,-0.04303,0.31909,-0.02465
-2.2118,-0.2898,9.35614,-0.0449,0.34707,-0.01679
-2.2118,-0.2898,9.35614,-0.0449,0.34707,-0.01679
-2.2118,-0.2898,9.35614,-0.0449,0.34707,-0.01679
-3.84401,-0.44428,9.54176,-0.04197,0.32455,-0.02558
-3.70989,-0.14011,9.55613,-0.03704,0.3027,-0.04383
-3.70989,-0.14011,9.55613,-0.03704,0.3027,-0.04383
-3.70989,-0.14011,9.55613,-0.03704,0.3027,-0.04383
-3.70989,-0.14011,9.55613,-0.03704,0.3027,-0.04383
-1.9699,-0.08622,9.31782,-0.04143,0.31642,-0.02212
-1.9699,-0.08622,9.31782,-0.04143,0.31642,-0.02212
-1.9699,-0.08622,9.31782,-0.04143,0.31642,-0.02212
-1.9699,-0.08622,9.31782,-0.04143,0.31642,-0.02212
-2.8848,-0.31016,9.4268,-0.04503,0.34827,-0.02238
-4.08111,-0.3389,9.45434,-0.04183,0.32135,-0.02798
-4.08111,-0.3389,9.45434,-0.04183,0.32135,-0.02798
-3.47637,-0.16765,9.37411,-0.03717,0.29338,-0.04383
-3.47637,-0.16765,9.37411,-0.03717,0.29338,-0.04383
-3.47637,-0.16765,9.37411,-0.03717,0.29338,-0.04383
-2.51956,-0.23351,9.07233,-0.03997,0.3039,-0.03544
-2.12678,-0.22513,9.23999,-0.04183,0.32015,-0.02438
-2.12678,-0.22513,9.23999,-0.04183,0.32015,-0.02438
-2.12678,-0.22513,9.23999,-0.04183,0.32015,-0.02438
-2.12678,-0.22513,9.23999,-0.04183,0.32015,-0.02438
-4.32541,-0.2874,9.40045,-0.04064,0.31722,-0.02891
-4.32541,-0.2874,9.40045,-0.04064,0.31722,-0.02891
-4.32541,-0.2874,9.40045,-0.04064,0.31722,-0.02891
-4.32541,-0.2874,9.40045,-0.04064,0.31722,-0.02891
-3.12071,-0.12933,9.21843,-0.03691,0.27899,-0.0397
-2.42017,-0.30536,8.98252,-0.04104,0.29551,-0.03651
-2.42017,-0.30536,8.98252,-0.04104,0.29551,-0.03651
-2.42017,-0.30536,8.98252,-0.04104,0.29551,-0.03651
-2.3543,-0.32692,9.18131,-0.04237,0.31762,-0.02292
-2.3543,-0.32692,9.18131,-0.04237,0.31762,-0.02292
-4.60562,-0.3365,9.56451,-0.04463,0.34347,-0.02611
-4.60562,-0.3365,9.56451,-0.04463,0.34347,-0.02611
-4.33738,-0.23471,9.35854,-0.04077,0.3059,-0.03038
-4.33738,-0.23471,9.35854,-0.04077,0.3059,-0.03038
-4.33738,-0.23471,9.35854,-0.04077,0.3059,-0.03038
-2.79978,-0.18322,9.08072,-0.03784,0.28272,-0.03451
-2.22857,-0.3868,8.96935,-0.04024,0.30377,-0.03504
-2.22857,-0.3868,8.96935,-0.04024,0.30377,-0.03504
-2.22857,-0.3868,8.96935,-0.04024,0.30377,-0.03504
-2.22857,-0.3868,8.96935,-0.04024,0.30377,-0.03504
-4.65113,-0.26106,9.41123,-0.04143,0.3488,-0.02904
-4.65113,-0.26106,9.41123,-0.04143,0.3488,-0.02904
-4.65113,-0.26106,9.41123,-0.04143,0.3488,-0.02904
-4.65113,-0.26106,9.41123,-0.04143,0.3488,-0.02904
-4.29307,-0.1437,9.30226,-0.04077,0.31936,-0.03064
-2.55668,-0.13891,8.93702,-0.03957,0.28511,-0.03131
-2.55668,-0.13891,8.93702,-0.03957,0.28511,-0.03131
-2.14354,-0.37003,8.9933,-0.0417,0.31469,-0.04077
-2.14354,-0.37003,8.9933,-0.0417,0.31469,-0.04077
-2.14354,-0.37003,8.9933,-0.0417,0.31469,-0.04077
-4.25715,-0.42871,9.25316,-0.04463,0.37451,-0.0413
-4.84393,-0.28501,9.36093,-0.04343,0.37505,-0.0425
-4.84393,-0.28501,9.36093,-0.04343,0.37505,-0.0425
-4.84393,-0.28501,9.36093,-0.04343,0.37505,-0.0425
-4.84393,-0.28501,9.36093,-0.04343,0.37505,-0.0425
-2.36867,-0.12095,8.87115,-0.0385,0.31629,-0.03104
-2.36867,-0.12095,8.87115,-0.0385,0.31629,-0.03104
-2.36867,-0.12095,8.87115,-0.0385,0.31629,-0.03104
-2.36867,-0.12095,8.87115,-0.0385,0.31629,-0.03104
-2.7423,-0.21435,8.82086,-0.03997,0.34933,-0.05289
-4.96967,-0.34369,9.1861,-0.0425,0.36865,-0.0401
-4.96967,-0.34369,9.1861,-0.0425,0.36865,-0.0401
-4.96967,-0.34369,9.1861,-0.0425,0.36865,-0.0401
-4.67029,-0.41673,9.20765,-0.04263,0.3444,-0.03477
-4.67029,-0.41673,9.20765,-0.04263,0.3444,-0.03477
-3.24166,-0.35806,8.95378,-0.03864,0.31642,-0.03344
-3.24166,-0.35806,8.95378,-0.03864,0.31642,-0.03344
-2.67763,-0.07664,8.93582,-0.03597,0.30497,-0.03184
-2.67763,-0.07664,8.93582,-0.03597,0.30497,-0.03184
-2.67763,-0.07664,8.93582,-0.03597,0.30497,-0.03184
-3.9434,-0.13532,8.74661,-0.03837,0.33854,-0.04783
-5.03673,-0.21914,9.0891,-0.0417,0.33548,-0.03158
-5.03673,-0.21914,9.0891,-0.0417,0.33548,-0.03158
-5.03673,-0.21914,9.0891,-0.0417,0.33548,-0.03158
-5.03673,-0.21914,9.0891,-0.0417,0.33548,-0.03158
-2.70278,-0.39398,8.7059,-0.04143,0.31949,-0.03411
-2.70278,-0.39398,8.7059,-0.04143,0.31949,-0.03411
-2.70278,-0.39398,8.7059,-0.04143,0.31949,-0.03411
-2.70278,-0.39398,8.7059,-0.04143,0.31949,-0.03411
-3.18059,-0.13771,8.82325,-0.03917,0.32175,-0.03344
-5.07624,-0.27662,8.90229,-0.0413,0.3444,-0.0413
-5.07624,-0.27662,8.90229,-0.0413,0.3444,-0.0413
-4.70142,-0.08742,9.02324,-0.04303,0.33028,-0.03038
-4.70142,-0.08742,9.02324,-0.04303,0.33028,-0.03038
-4.70142,-0.08742,9.02324,-0.04303,0.33028,-0.03038
-3.48835,-0.43709,8.74541,-0.0449,0.33601,-0.03251
-3.01772,-0.35327,8.64842,-0.04263,0.32975,-0.03371
-3.01772,-0.35327,8.64842,-0.04263,0.32975,-0.03371
-3.01772,-0.35327,8.64842,-0.04263,0.32975,-0.03371
-3.01772,-0.35327,8.64842,-0.04263,0.32975,-0.03371
-5.30856,-0.24908,8.90109,-0.04183,0.31802,-0.0405
-5.30856,-0.24908,8.90109,-0.04183,0.31802,-0.0405
-5.30856,-0.24908,8.90109,-0.04183,0.31802,-0.0405
-5.30856,-0.24908,8.90109,-0.04183,0.31802,-0.0405
-4.50503,-0.17364,8.9466,-0.0429,0.30204,-0.02691
-3.02491,-0.3832,8.60171,-0.04423,0.30816,-0.02731
-3.02491,-0.3832,8.60171,-0.04423,0.30816,-0.02731
-3.02491,-0.3832,8.60171,-0.04423,0.30816,-0.02731
-3.73623,-0.38919,8.7035,-0.04397,0.32921,-0.03238
-3.73623,-0.38919,8.7035,-0.04397,0.32921,-0.03238
-4.46791,-0.44308,8.63764,-0.04157,0.31176,-0.02571
-4.46791,-0.44308,8.63764,-0.04157,0.31176,-0.02571
-5.30497,-0.27303,8.90947,-0.04064,0.31163,-0.03357
-5.30497,-0.27303,8.90947,-0.04064,0.31163,-0.03357
-5.30497,-0.27303,8.90947,-0.04064,0.31163,-0.03357
-3.98412,-0.30057,8.79212,-0.04037,0.29977,-0.02904
-3.09796,-0.22393,8.58495,-0.04104,0.32202,-0.02518
-3.09796,-0.22393,8.58495,-0.04104,0.32202,-0.02518
-3.09796,-0.22393,8.58495,-0.04104,0.32202,-0.02518
-4.39366,-0.38201,8.58974,-0.0449,0.34587,-0.02598
-5.18522,-0.46344,8.64363,-0.04143,0.30723,-0.02571
-5.18522,-0.46344,8.64363,-0.04143,0.30723,-0.02571
-5.18522,-0.46344,8.64363,-0.04143,0.30723,-0.02571
-5.18522,-0.46344,8.64363,-0.04143,0.30723,-0.02571
-4.38648,-0.31974,8.76697,-0.04024,0.29391,-0.0393
-4.38648,-0.31974,8.76697,-0.04024,0.29391,-0.0393
-4.38648,-0.31974,8.76697,-0.04024,0.29391,-0.0393
-5.1457,-0.63229,8.58495,-0.03784,0.24674,-0.02811
-5.1457,-0.63229,8.58495,-0.03784,0.24674,-0.02811
-4.59245,-0.21795,8.60052,-0.02611,0.0922,-0.02851
-4.59245,-0.21795,8.60052,-0.02611,0.0922,-0.02851
-4.5673,-0.28141,8.47837,-0.02531,0.03264,-0.02798
-4.5673,-0.28141,8.47837,-0.02531,0.03264,-0.02798
-4.5673,-0.28141,8.47837,-0.02531,0.03264,-0.02798
-4.4236,-0.22633,8.60052,-0.02771,0.00959,-0.03051
-4.41043,-0.39039,8.60291,-0.02918,0.00333,-0.03064
-4.41043,-0.39039,8.60291,-0.02918,0.00333,-0.03064
-4.41043,-0.39039,8.60291,-0.02918,0.00333,-0.03064
-4.41043,-0.39039,8.60291,-0.02918,0.00333,-0.03064
-4.36492,-0.42033,8.62806,-0.02491,0.00573,-0.02771
-4.36492,-0.42033,8.62806,-0.02491,0.00573,-0.02771
-4.36492,-0.42033,8.62806,-0.02491,0.00573,-0.02771
-4.36492,-0.42033,8.62806,-0.02491,0.00573,-0.02771
-4.34217,-0.30417,8.60531,-0.02185,0.00786,-0.02571
-4.43797,-0.30057,8.5586,-0.02105,0.00959,-0.02518
-4.43797,-0.30057,8.5586,-0.02105,0.00959,-0.02518
-4.43797,-0.30057,8.5586,-0.02105,0.00959,-0.02518
-4.41043,-0.22034,8.58854,-0.02252,0.00613,-0.02638
-4.41043,-0.22034,8.58854,-0.02252,0.00613,-0.02638
-4.41402,-0.31255,8.55381,-0.02531,0.00413,-0.02891
-4.41402,-0.31255,8.55381,-0.02531,0.00413,-0.02891
-4.34457,-0.2898,8.63045,-0.02705,0.00067,-0.02998
-4.34457,-0.2898,8.63045,-0.02705,0.00067,-0.02998
-4.34457,-0.2898,8.63045,-0.02705,0.00067,-0.02998
-4.35894,-0.40236,8.6077,-0.02731,0.00187,-0.02944
-4.31104,-0.35446,8.6101,-0.02505,0.00373,-0.02785
-4.31104,-0.35446,8.6101,-0.02505,0.00373,-0.02785
-4.31104,-0.35446,8.6101,-0.02505,0.00373,-0.02785
-4.31104,-0.35446,8.6101,-0.02505,0.00373,-0.02785
-4.41043,-0.28022,8.57178,-0.02145,0.00746,-0.02651
-4.41043,-0.28022,8.57178,-0.02145,0.00746,-0.02651
-4.41043,-0.28022,8.57178,-0.02145,0.00746,-0.02651
-4.45713,-0.28381,8.58974,-0.02305,0.0064,-0.02731
-4.45713,-0.28381,8.58974,-0.02305,0.0064,-0.02731
-4.40444,-0.2886,8.58136,-0.02558,0.00373,-0.02904
-4.40444,-0.2886,8.58136,-0.02558,0.00373,-0.02904
-4.37331,-0.34488,8.60171,-0.02758,0.00213,-0.02944
-4.37331,-0.34488,8.60171,-0.02758,0.00213,-0.02944
-4.37331,-0.34488,8.60171,-0.02758,0.00213,-0.02944
-4.31822,-0.37841,8.64842,-0.02665,0.00226,-0.02958
-4.35534,-0.39398,8.61249,-0.02451,0.00453,-0.02838
-4.35534,-0.39398,8.61249,-0.02451,0.00453,-0.02838
-4.35534,-0.39398,8.61249,-0.02451,0.00453,-0.02838
-4.35534,-0.39398,8.61249,-0.02451,0.00453,-0.02838
-4.38169,-0.30896,8.58495,-0.02198,0.00746,-0.02705
-4.38169,-0.30896,8.58495,-0.02198,0.00746,-0.02705
-4.38169,-0.30896,8.58495,-0.02198,0.00746,-0.02705
-4.38169,-0.30896,8.58495,-0.02198,0.00746,-0.02705
-4.41163,-0.26585,8.5586,-0.02318,0.00653,-0.02678
-4.41761,-0.2862,8.57896,-0.02505,0.0044,-0.02825
-4.41761,-0.2862,8.57896,-0.02505,0.0044,-0.02825
-4.41761,-0.2862,8.57896,-0.02505,0.0044,-0.02825
-4.39007,-0.31614,8.6089,-0.02665,0.00133,-0.02918
-4.39007,-0.31614,8.6089,-0.02665,0.00133,-0.02918
-4.36253,-0.34728,8.60411,-0.02705,0.00187,-0.02931
-4.36253,-0.34728,8.60411,-0.02705,0.00187,-0.02931
-4.35534,-0.37362,8.61249,-0.02505,0.00306,-0.02931
-4.35534,-0.37362,8.61249,-0.02505,0.00306,-0.02931
-4.35534,-0.37362,8.61249,-0.02505,0.00306,-0.02931
-4.36732,-0.35686,8.61249,-0.02318,0.00426,-0.02798
-4.41881,-0.33171,8.59932,-0.02252,0.00586,-0.02705
-4.41881,-0.33171,8.59932,-0.02252,0.00586,-0.02705
-4.41881,-0.33171,8.59932,-0.02252,0.00586,-0.02705
-4.41881,-0.33171,8.59932,-0.02252,0.00586,-0.02705
-4.40085,-0.35925,8.45562,-0.02345,0.00426,-0.02771
-4.40085,-0.35925,8.45562,-0.02345,0.00426,-0.02771
-4.40085,-0.35925,8.45562,-0.02345,0.00426,-0.02771
-4.49425,-0.50295,8.3179,-0.02212,-0.0016,-0.02611
-4.49425,-0.50295,8.3179,-0.02212,-0.0016,-0.02611
-4.01286,0.16765,9.21005,-0.01799,-0.00786,-0.02691
-4.01286,0.16765,9.21005,-0.01799,-0.00786,-0.02691
-4.63197,-0.61792,8.367,-0.02918,0.01372,-0.02851
-4.63197,-0.61792,8.367,-0.02918,0.01372,-0.02851
-4.63197,-0.61792,8.367,-0.02918,0.01372,-0.02851
-4.28589,-0.23711,8.63405,-0.02411,0.00693,-0.02958
-4.49904,-0.34009,8.60411,-0.02465,0.00453,-0.02811
-4.49904,-0.34009,8.60411,-0.02465,0.00453,-0.02811
-4.49904,-0.34009,8.60411,-0.02465,0.00453,-0.02811
-4.49904,-0.34009,8.60411,-0.02465,0.00453,-0.02811
-4.3769,-0.37003,8.60052,-0.02545,0.00053,-0.02998
-4.3769,-0.37003,8.60052,-0.02545,0.00053,-0.02998
-4.3769,-0.37003,8.60052,-0.02545,0.00053,-0.02998
-4.3769,-0.37003,8.60052,-0.02545,0.00053,-0.02998
-4.33738,-0.36644,8.63285,-0.02385,0.00226,-0.02878
-4.39366,-0.32692,8.61848,-0.02185,0.0056,-0.02678
-4.39366,-0.32692,8.61848,-0.02185,0.0056,-0.02678
-4.39366,-0.32692,8.61848,-0.02185,0.0056,-0.02678
-4.36612,-0.25507,8.52747,-0.02118,0.0064,-0.02571
-4.36612,-0.25507,8.52747,-0.02118,0.0064,-0.02571
-4.42001,-0.26106,8.54184,-0.02238,0.00506,-0.02678
-4.42001,-0.26106,8.54184,-0.02238,0.00506,-0.02678
-4.39965,-0.27064,8.61249,-0.02465,0.00266,-0.02798
-4.39965,-0.27064,8.61249,-0.02465,0.00266,-0.02798
-4.39965,-0.27064,8.61249,-0.02465,0.00266,-0.02798
-4.39965,-0.34488,8.57297,-0.02558,0.00093,-0.02918
-4.34217,-0.36165,8.658,-0.02518,-0.00013,-0.02944
-4.34217,-0.36165,8.658,-0.02518,-0.00013,-0.02944
-4.34217,-0.36165,8.658,-0.02518,-0.00013,-0.02944
-4.36253,-0.38081,8.61249,-0.02451,0.00226,-0.02918
-4.35654,-0.35566,8.56219,-0.02318,0.0044,-0.02825
-4.35654,-0.35566,8.56219,-0.02318,0.0044,-0.02825
-4.35654,-0.35566,8.56219,-0.02318,0.0044,-0.02825
-4.37091,-0.30417,8.62806,-0.02198,0.0056,-0.02705
-4.37091,-0.30417,8.62806,-0.02198,0.0056,-0.02705
-4.40803,-0.30656,8.59812,-0.02278,0.0056,-0.02678
-4.40803,-0.30656,8.59812,-0.02278,0.0056,-0.02678
-4.40085,-0.2862,8.63285,-0.02305,0.00466,-0.02705
-4.40085,-0.2862,8.63285,-0.02305,0.00466,-0.02705
-4.40085,-0.2862,8.63285,-0.02305,0.00466,-0.02705
-4.41402,-0.31495,8.55381,-0.02425,0.00426,-0.02825
-4.36852,-0.32692,8.5598,-0.02518,0.0036,-0.02904
-4.36852,-0.32692,8.5598,-0.02518,0.0036,-0.02904
-4.36852,-0.32692,8.5598,-0.02518,0.0036,-0.02904
-4.36852,-0.32692,8.5598,-0.02518,0.0036,-0.02904
-4.35894,-0.36045,8.61369,-0.02465,0.004,-0.02864
-4.35894,-0.36045,8.61369,-0.02465,0.004,-0.02864
-4.35894,-0.36045,8.61369,-0.02465,0.004,-0.02864
-4.35894,-0.36045,8.61369,-0.02465,0.004,-0.02864
-4.38768,-0.32093,8.59692,-0.02358,0.00533,-0.02758
-4.40324,-0.30297,8.58974,-0.02265,0.0052,-0.02838
-4.40324,-0.30297,8.58974,-0.02265,0.0052,-0.02838
-4.40324,-0.30297,8.58974,-0.02265,0.0052,-0.02838
-4.39845,-0.29459,8.57896,-0.02358,0.0028,-0.02838
-4.39845,-0.29459,8.57896,-0.02358,0.0028,-0.02838
-4.39366,-0.32333,8.59812,-0.02438,0.00293,-0.02825
-4.39366,-0.32333,8.59812,-0.02438,0.00293,-0.02825
-4.37091,-0.33291,8.62207,-0.02358,0.00333,-0.02731
-4.37091,-0.33291,8.62207,-0.02358,0.00333,-0.02731
-4.37091,-0.33291,8.62207,-0.02358,0.00333,-0.02731
-4.36732,-0.29698,8.60052,-0.02345,0.00426,-0.02731
-4.36732,-0.29698,8.60052,-0.02345,0.00426,-0.02731
-4.36732,-0.29698,8.60052,-0.02345,0.00426,-0.02731
-4.36732,-0.29698,8.60052,-0.02345,0.00426,-0.02731
-4.36852,-0.31495,8.59333,-0.02438,0.00346,-0.02771
-4.36492,-0.31854,8.58255,-0.02478,0.00386,-0.02745
-4.36492,-0.31854,8.58255,-0.02478,0.00386,-0.02745
-4.36492,-0.31854,8.58255,-0.02478,0.00386,-0.02745
-4.39965,-0.32692,8.58615,-0.02451,0.00466,-0.02798
-4.39965,-0.32692,8.58615,-0.02451,0.00466,-0.02798
-4.38887,-0.30417,8.59213,-0.02425,0.00346,-0.02891
-4.38887,-0.30417,8.59213,-0.02425,0.00346,-0.02891
-4.41402,-0.3353,8.55621,-0.02531,0.00306,-0.02864
-4.41402,-0.3353,8.55621,-0.02531,0.00306,-0.02864
-4.41402,-0.3353,8.55621,-0.02531,0.00306,-0.02864
-4.35295,-0.36524,8.59692,-0.02585,0.00253,-0.02904
-4.35894,-0.38201,8.63524,-0.02451,0.0036,-0.02825
-4.35894,-0.38201,8.63524,-0.02451,0.0036,-0.02825
-4.35894,-0.38201,8.63524,-0.02451,0.0036,-0.02825
-4.35894,-0.38201,8.63524,-0.02451,0.0036,-0.02825
-4.3781,-0.30536,8.58974,-0.02252,0.0052,-0.02678
-4.3781,-0.30536,8.58974,-0.02252,0.0052,-0.02678
-4.3781,-0.30536,8.58974,-0.02252,0.0052,-0.02678
-4.3781,-0.30536,8.58974,-0.02252,0.0052,-0.02678
-4.39726,-0.27303,8.58136,-0.02358,0.0048,-0.02718
-4.38648,-0.26106,8.57776,-0.02491,0.00453,-0.02891
-4.38648,-0.26106,8.57776,-0.02491,0.00453,-0.02891
-4.38648,-0.26106,8.57776,-0.02491,0.00453,-0.02891
-4.37091,-0.31495,8.61249,-0.02571,0.00306,-0.02998
-4.37091,-0.31495,8.61249,-0.02571,0.00306,-0.02998
-4.35534,-0.35207,8.63764,-0.02545,0.00306,-0.02984
-4.35534,-0.35207,8.63764,-0.02545,0.00306,-0.02984
-4.37091,-0.36165,8.61489,-0.02451,0.0048,-0.02891
-4.37091,-0.36165,8.61489,-0.02451,0.0048,-0.02891
-4.37091,-0.36165,8.61489,-0.02451,0.0048,-0.02891
-4.40564,-0.31255,8.57776,-0.02451,0.00533,-0.02891
-4.40564,-0.31255,8.57776,-0.02451,0.00533,-0.02891
-4.40564,-0.31255,8.57776,-0.02451,0.00533,-0.02891
-4.40564,-0.31255,8.57776,-0.02451,0.00533,-0.02891
-4.40444,-0.32453,8.58255,-0.02518,0.00386,-0.02931
-4.36971,-0.34249,8.6089,-0.02545,0.00333,-0.02931
-4.36971,-0.34249,8.6089,-0.02545,0.00333,-0.02931
-4.36971,-0.34249,8.6089,-0.02545,0.00333,-0.02931
-4.36852,-0.3389,8.6089,-0.02518,0.00426,-0.02918
-4.36852,-0.3389,8.6089,-0.02518,0.00426,-0.02918
-4.3757,-0.36764,8.59932,-0.02411,0.0048,-0.02825
-4.3757,-0.36764,8.59932,-0.02411,0.0048,-0.02825
-4.36852,-0.2898,8.59812,-0.02372,0.00453,-0.02878
-4.36852,-0.2898,8.59812,-0.02372,0.00453,-0.02878
-4.36852,-0.2898,8.59812,-0.02372,0.00453,-0.02878
-4.41402,-0.30896,8.59932,-0.02411,0.00493,-0.02891
-4.39606,-0.29219,8.60531,-0.02372,0.00426,-0.02851
-4.39606,-0.29219,8.60531,-0.02372,0.00426,-0.02851
-4.39606,-0.29219,8.60531,-0.02372,0.00426,-0.02851
-4.39606,-0.29219,8.60531,-0.02372,0.00426,-0.02851
-4.35175,-0.32333,8.59333,-0.02531,0.0032,-0.02918
-4.35175,-0.32333,8.59333,-0.02531,0.0032,-0.02918
-4.35175,-0.32333,8.59333,-0.02531,0.0032,-0.02918
-4.35175,-0.32333,8.59333,-0.02531,0.0032,-0.02918
-4.35774,-0.35925,8.57657,-0.02505,0.0032,-0.02891
-4.3781,-0.35327,8.60531,-0.02398,0.00426,-0.02811
-4.3781,-0.35327,8.60531,-0.02398,0.00426,-0.02811
-4.3781,-0.35327,8.60531,-0.02398,0.00426,-0.02811
-4.37091,-0.29818,8.64123,-0.02332,0.0048,-0.02785
-4.37091,-0.29818,8.64123,-0.02332,0.0048,-0.02785
-4.39486,-0.30896,8.55501,-0.02438,0.00506,-0.02798
-4.39486,-0.30896,8.55501,-0.02438,0.00506,-0.02798
-4.41043,-0.30656,8.58495,-0.02465,0.0044,-0.02851
-4.41043,-0.30656,8.58495,-0.02465,0.0044,-0.02851
-4.41043,-0.30656,8.58495,-0.02465,0.0044,-0.02851
-4.41522,-0.36883,8.57537,-0.02451,0.00466,-0.02798
-4.41522,-0.36883,8.57537,-0.02451,0.00466,-0.02798
-4.41522,-0.36883,8.57537,-0.02451,0.00466,-0.02798
-4.41522,-0.36883,8.57537,-0.02451,0.00466,-0.02798
-4.35654,-0.28022,8.61489,-0.02398,0.00426,-0.02771
-4.4236,-0.34129,8.54663,-0.02491,0.00533,-0.02838
-4.4236,-0.34129,8.54663,-0.02491,0.00533,-0.02838
-4.4236,-0.34129,8.54663,-0.02491,0.00533,-0.02838
-4.32421,-0.26824,8.62566,-0.02425,0.00386,-0.02864
-4.32421,-0.26824,8.62566,-0.02425,0.00386,-0.02864
-4.41282,-0.34009,8.58974,-0.02478,0.00346,-0.02771
-4.41282,-0.34009,8.58974,-0.02478,0.00346,-0.02771
-4.30385,-0.28022,8.62806,-0.02398,0.00293,-0.02864
-4.30385,-0.28022,8.62806,-0.02398,0.00293,-0.02864
-4.30385,-0.28022,8.62806,-0.02398,0.00293,-0.02864
-4.41402,-0.3844,8.58136,-0.02505,0.00426,-0.02785
-4.3302,-0.28501,8.65321,-0.02398,0.00306,-0.02851
-4.3302,-0.28501,8.65321,-0.02398,0.00306,-0.02851
-4.3302,-0.28501,8.65321,-0.02398,0.00306,-0.02851
-4.3302,-0.28501,8.65321,-0.02398,0.00306,-0.02851
-4.36612,-0.32453,8.61848,-0.02451,0.00346,-0.02825
-4.36612,-0.32453,8.61848,-0.02451,0.00346,-0.02825
-4.36612,-0.32453,8.61848,-0.02451,0.00346,-0.02825
-4.36612,-0.32453,8.61848,-0.02451,0.00346,-0.02825
-4.39247,-0.33171,8.58495,-0.02411,0.004,-0.02758
-4.40564,-0.36165,8.57537,-0.02398,0.00453,-0.02731
-4.40564,-0.36165,8.57537,-0.02398,0.00453,-0.02731
-4.40564,-0.36165,8.57537,-0.02398,0.00453,-0.02731
-4.35774,-0.28501,8.64123,-0.02358,0.0044,-0.02745
-4.35774,-0.28501,8.64123,-0.02358,0.0044,-0.02745
-4.43318,-0.35566,8.56459,-0.02478,0.00506,-0.02798
-4.43318,-0.35566,8.56459,-0.02478,0.00506,-0.02798
-4.3302,-0.27543,8.60052,-0.02438,0.00466,-0.02904
-4.3302,-0.27543,8.60052,-0.02438,0.00466,-0.02904
-4.3302,-0.27543,8.60052,-0.02438,0.00466,-0.02904
-4.33738,-0.29698,8.59333,-0.02451,0.00346,-0.02851
-4.33738,-0.29698,8.59333,-0.02451,0.00346,-0.02851
-4.33738,-0.29698,8.59333,-0.02451,0.00346,-0.02851
-4.33738,-0.29698,8.59333,-0.02451,0.00346,-0.02851
-4.41402,-0.34129,8.58255,-0.02531,0.0048,-0.02771
-4.36013,-0.27902,8.6065,-0.02465,0.00426,-0.02825
-4.36013,-0.27902,8.6065,-0.02465,0.00426,-0.02825
-4.36013,-0.27902,8.6065,-0.02465,0.00426,-0.02825
-4.38887,-0.32572,8.61608,-0.02478,0.00386,-0.02825
-4.38887,-0.32572,8.61608,-0.02478,0.00386,-0.02825
-4.37331,-0.2898,8.59812,-0.02411,0.00426,-0.02878
-4.37331,-0.2898,8.59812,-0.02411,0.00426,-0.02878
-4.39366,-0.30057,8.56938,-0.02411,0.00466,-0.02891
-4.39366,-0.30057,8.56938,-0.02411,0.00466,-0.02891
-4.39366,-0.30057,8.56938,-0.02411,0.00466,-0.02891
-4.39366,-0.32333,8.59213,-0.02478,0.00413,-0.02891
-4.36732,-0.32333,8.62686,-0.02545,0.00346,-0.02851
-4.36732,-0.32333,8.62686,-0.02545,0.00346,-0.02851
-4.36732,-0.32333,8.62686,-0.02545,0.00346,-0.02851
-4.38169,-0.35566,8.61848,-0.02518,0.00453,-0.02944
-4.36852,-0.34249,8.61848,-0.02505,0.0048,-0.02878
-4.36852,-0.34249,8.61848,-0.02505,0.0048,-0.02878
-4.36852,-0.34249,8.61848,-0.02505,0.0048,-0.02878
-4.36852,-0.34249,8.61848,-0.02505,0.0048,-0.02878
-4.36852,-0.31016,8.60411,-0.02425,0.00453,-0.02798
-4.36852,-0.31016,8.60411,-0.02425,0.00453,-0.02798
-4.36852,-0.31016,8.60411,-0.02425,0.00453,-0.02798
-4.36852,-0.31016,8.60411,-0.02425,0.00453,-0.02798
-4.3745,-0.31614,8.59692,-0.02465,0.00413,-0.02798
-4.38408,-0.32213,8.59932,-0.02491,0.00346,-0.02864
-4.38408,-0.32213,8.59932,-0.02491,0.00346,-0.02864
-4.38408,-0.32213,8.59932,-0.02491,0.00346,-0.02864
-4.36373,-0.31734,8.59333,-0.02491,0.00413,-0.02918
-4.36373,-0.31734,8.59333,-0.02491,0.00413,-0.02918
-4.37929,-0.32333,8.58255,-0.02411,0.0048,-0.02851
-4.39366,-0.32932,8.60411,-0.02425,0.00493,-0.02798
-4.39366,-0.32932,8.60411,-0.02425,0.00493,-0.02798
-4.39366,-0.32932,8.60411,-0.02425,0.00493,-0.02798
-4.39366,-0.32932,8.60411,-0.02425,0.00493,-0.02798
-4.38049,-0.31375,8.62686,-0.02478,0.00386,-0.02904
-4.38049,-0.31375,8.62686,-0.02478,0.00386,-0.02904
-4.38049,-0.31375,8.62686,-0.02478,0.00386,-0.02904
-4.38049,-0.31375,8.62686,-0.02478,0.00386,-0.02904
-4.35055,-0.34967,8.61489,-0.02491,0.00506,-0.02891
-4.35295,-0.34728,8.61848,-0.02425,0.0048,-0.02878
-4.35295,-0.34728,8.61848,-0.02425,0.0048,-0.02878
-4.35295,-0.34728,8.61848,-0.02425,0.0048,-0.02878
-4.39845,-0.34967,8.61608,-0.02438,0.00586,-0.02785
-4.39845,-0.34967,8.61608,-0.02438,0.00586,-0.02785
-4.3745,-0.31854,8.6089,-0.02398,0.00573,-0.02785
-4.3745,-0.31854,8.6089,-0.02398,0.00573,-0.02785
-4.38648,-0.30177,8.6065,-0.02451,0.0044,-0.02811
-4.38648,-0.30177,8.6065,-0.02451,0.0044,-0.02811
-4.38648,-0.30177,8.6065,-0.02451,0.0044,-0.02811
-4.3757,-0.30896,8.58495,-0.02505,0.00333,-0.02851
-4.35774,-0.32932,8.60531,-0.02451,0.00413,-0.02838
-4.35774,-0.32932,8.60531,-0.02451,0.00413,-0.02838
-4.35774,-0.32932,8.60531,-0.02451,0.00413,-0.02838
-4.35774,-0.32932,8.60531,-0.02451,0.00413,-0.02838
-4.39007,-0.31614,8.61369,-0.02398,0.0056,-0.02825
-4.39007,-0.31614,8.61369,-0.02398,0.0056,-0.02825
-4.39007,-0.31614,8.61369,-0.02398,0.0056,-0.02825
-4.39007,-0.31614,8.61369,-0.02398,0.0056,-0.02825
-4.38768,-0.30536,8.59573,-0.02385,0.0052,-0.02891
-4.38289,-0.32213,8.61608,-0.02425,0.004,-0.02838
-4.38289,-0.32213,8.61608,-0.02425,0.004,-0.02838
-4.38289,-0.32213,8.61608,-0.02425,0.004,-0.02838
-4.37929,-0.31495,8.59094,-0.02478,0.00413,-0.02864
-4.37929,-0.31495,8.59094,-0.02478,0.00413,-0.02864
-4.35295,-0.34488,8.60411,-0.02505,0.0032,-0.02825
-4.37091,-0.34369,8.59453,-0.02465,0.00386,-0.02851
-4.37091,-0.34369,8.59453,-0.02465,0.00386,-0.02851
-4.37091,-0.34369,8.59453,-0.02465,0.00386,-0.02851
-4.37091,-0.34369,8.59453,-0.02465,0.00386,-0.02851
-4.39486,-0.31016,8.56699,-0.02425,0.00533,-0.02851
-4.39486,-0.31016,8.56699,-0.02425,0.00533,-0.02851
-4.39486,-0.31016,8.56699,-0.02425,0.00533,-0.02851
-4.39486,-0.31016,8.56699,-0.02425,0.00533,-0.02851
-4.39726,-0.29818,8.59094,-0.02358,0.00493,-0.02838
-4.41402,-0.32692,8.59812,-0.02438,0.0048,-0.02771
-4.41402,-0.32692,8.59812,-0.02438,0.0048,-0.02771
-4.41402,-0.32692,8.59812,-0.02438,0.0048,-0.02771
-4.34217,-0.33291,8.59573,-0.02398,0.00373,-0.02878
-4.34217,-0.33291,8.59573,-0.02398,0.00373,-0.02878
-4.35654,-0.36045,8.59213,-0.02465,0.0036,-0.02864
-4.35654,-0.36045,8.59213,-0.02465,0.0036,-0.02864
-4.36013,-0.32453,8.59812,-0.02398,0.00426,-0.02838
-4.36013,-0.32453,8.59812,-0.02398,0.00426,-0.02838
-4.36013,-0.32453,8.59812,-0.02398,0.00426,-0.02838
-4.38648,-0.31135,8.59453,-0.02385,0.00506,-0.02785
-4.37929,-0.2874,8.60411,-0.02398,0.00493,-0.02771
-4.37929,-0.2874,8.60411,-0.02398,0.00493,-0.02771
-4.37929,-0.2874,8.60411,-0.02398,0.00493,-0.02771
-4.37929,-0.2874,8.60411,-0.02398,0.00493,-0.02771
-4.36253,-0.29818,8.60291,-0.02505,0.00426,-0.02931
-4.36253,-0.29818,8.60291,-0.02505,0.00426,-0.02931
-4.36253,-0.29818,8.60291,-0.02505,0.00426,-0.02931
-4.36253,-0.29818,8.60291,-0.02505,0.00426,-0.02931
-4.3769,-0.33171,8.61129,-0.02518,0.0036,-0.02944
-4.3781,-0.33051,8.59213,-0.02491,0.00293,-0.02904
-4.3781,-0.33051,8.59213,-0.02491,0.00293,-0.02904
-4.3781,-0.33051,8.59213,-0.02491,0.00293,-0.02904
-4.39127,-0.32213,8.61249,-0.02491,0.00346,-0.02878
-4.39127,-0.32213,8.61249,-0.02491,0.00346,-0.02878
-4.38049,-0.31255,8.59812,-0.02478,0.0048,-0.02811
-4.38887,-0.3365,8.59812,-0.02465,0.00426,-0.02785
-4.38887,-0.3365,8.59812,-0.02465,0.00426,-0.02785
-4.38887,-0.3365,8.59812,-0.02465,0.00426,-0.02785
-4.38887,-0.3365,8.59812,-0.02465,0.00426,-0.02785
-4.37211,-0.34967,8.59812,-0.02425,0.0044,-0.02798
-4.37211,-0.34967,8.59812,-0.02425,0.0044,-0.02798
-4.37211,-0.34967,8.59812,-0.02425,0.0044,-0.02798
-4.37211,-0.34967,8.59812,-0.02425,0.0044,-0.02798
-4.39127,-0.32453,8.61608,-0.02425,0.00466,-0.02798
-4.39965,-0.31854,8.57537,-0.02438,0.0052,-0.02718
-4.39965,-0.31854,8.57537,-0.02438,0.0052,-0.02718
-4.39965,-0.31854,8.57537,-0.02438,0.0052,-0.02718
-4.39845,-0.30057,8.56818,-0.02411,0.0048,-0.02745
-4.39845,-0.30057,8.56818,-0.02411,0.0048,-0.02745
-4.40444,-0.31734,8.59094,-0.02478,0.00453,-0.02785
-4.40444,-0.31734,8.59094,-0.02478,0.00453,-0.02785
-4.37211,-0.29818,8.59213,-0.02465,0.0048,-0.02758
-4.37211,-0.29818,8.59213,-0.02465,0.0048,-0.02758
-4.37211,-0.29818,8.59213,-0.02465,0.0048,-0.02758
-4.3769,-0.32453,8.57178,-0.02451,0.0044,-0.02851
-4.35534,-0.3353,8.61129,-0.02491,0.00466,-0.02864
-4.35534,-0.3353,8.61129,-0.02491,0.00466,-0.02864
-4.35534,-0.3353,8.61129,-0.02491,0.00466,-0.02864
-4.35534,-0.3353,8.61129,-0.02491,0.00466,-0.02864
-4.36373,-0.33171,8.61129,-0.02411,0.004,-0.02891
-4.36373,-0.33171,8.61129,-0.02411,0.004,-0.02891
-4.36373,-0.33171,8.61129,-0.02411,0.004,-0.02891
-4.36373,-0.33171,8.61129,-0.02411,0.004,-0.02891
-4.37331,-0.33171,8.58136,-0.02438,0.0048,-0.02904
-4.38528,-0.31375,8.56938,-0.02518,0.00453,-0.02864
-4.38528,-0.31375,8.56938,-0.02518,0.00453,-0.02864
-4.38528,-0.31375,8.56938,-0.02518,0.00453,-0.02864
-4.38887,-0.31854,8.61728,-0.02505,0.00426,-0.02891
-4.38887,-0.31854,8.61728,-0.02505,0.00426,-0.02891
-4.38648,-0.32692,8.59932,-0.02465,0.00373,-0.02864
-4.3757,-0.30057,8.59453,-0.02411,0.00333,-0.02838
-4.3757,-0.30057,8.59453,-0.02411,0.00333,-0.02838
-4.3757,-0.30057,8.59453,-0.02411,0.00333,-0.02838
-4.3757,-0.30057,8.59453,-0.02411,0.00333,-0.02838
-4.38408,-0.30896,8.60052,-0.02478,0.00386,-0.02878
-4.38408,-0.30896,8.60052,-0.02478,0.00386,-0.02878
-4.38408,-0.30896,8.60052,-0.02478,0.00386,-0.02878
-4.38408,-0.30896,8.60052,-0.02478,0.00386,-0.02878
-4.39007,-0.31614,8.6065,-0.02491,0.0036,-0.02958
-4.3745,-0.29818,8.61489,-0.02465,0.0044,-0.02851
-4.3745,-0.29818,8.61489,-0.02465,0.0044,-0.02851
-4.3745,-0.29818,8.61489,-0.02465,0.0044,-0.02851
-4.36133,-0.32333,8.58495,-0.02465,0.00453,-0.02851
-4.36133,-0.32333,8.58495,-0.02465,0.00453,-0.02851
-4.3781,-0.33291,8.58375,-0.02385,0.0048,-0.02838
-4.3781,-0.33291,8.58375,-0.02385,0.0048,-0.02838
-4.3757,-0.31375,8.59932,-0.02398,0.00493,-0.02798
-4.3757,-0.31375,8.59932,-0.02398,0.00493,-0.02798
-4.3757,-0.31375,8.59932,-0.02398,0.00493,-0.02798
-4.37929,-0.32453,8.60052,-0.02372,0.00413,-0.02731
-4.39007,-0.32333,8.60411,-0.02451,0.00386,-0.02718
-4.39007,-0.32333,8.60411,-0.02451,0.00386,-0.02718
-4.39007,-0.32333,8.60411,-0.02451,0.00386,-0.02718
-4.39007,-0.32333,8.60411,-0.02451,0.00386,-0.02718
-4.3781,-0.33051,8.57537,-0.02491,0.0044,-0.02798
-4.3781,-0.33051,8.57537,-0.02491,0.0044,-0.02798
-4.3781,-0.33051,8.57537,-0.02491,0.0044,-0.02798
-4.3781,-0.33051,8.57537,-0.02491,0.0044,-0.02798
-4.3745,-0.31614,8.61129,-0.02491,0.00346,-0.02811
-4.38648,-0.32572,8.58854,-0.02438,0.0044,-0.02838
-4.38648,-0.32572,8.58854,-0.02438,0.0044,-0.02838
-4.38648,-0.32572,8.58854,-0.02438,0.0044,-0.02838
-4.3745,-0.31375,8.58974,-0.02438,0.00466,-0.02891
-4.3745,-0.31375,8.58974,-0.02438,0.00466,-0.02891
-4.37331,-0.32213,8.6089,-0.02478,0.00413,-0.02851
-4.36253,-0.31614,8.60171,-0.02491,0.00373,-0.02825
-4.36253,-0.31614,8.60171,-0.02491,0.00373,-0.02825
-4.36253,-0.31614,8.60171,-0.02491,0.00373,-0.02825
-4.36253,-0.31614,8.60171,-0.02491,0.00373,-0.02825
-4.40085,-0.32093,8.61848,-0.02491,0.00413,-0.02811
-4.40085,-0.32093,8.61848,-0.02491,0.00413,-0.02811
-4.40085,-0.32093,8.61848,-0.02491,0.00413,-0.02811
-4.40085,-0.32093,8.61848,-0.02491,0.00413,-0.02811
-4.39486,-0.31974,8.57776,-0.02478,0.00346,-0.02851
-4.39247,-0.32692,8.58854,-0.02438,0.0044,-0.02851
-4.39247,-0.32692,8.58854,-0.02438,0.0044,-0.02851
-4.39247,-0.32692,8.58854,-0.02438,0.0044,-0.02851
-4.40205,-0.33171,8.60291,-0.02438,0.0044,-0.02891
-4.40205,-0.33171,8.60291,-0.02438,0.0044,-0.02891
-4.39845,-0.33411,8.62087,-0.02438,0.0044,-0.02851
-4.39845,-0.33411,8.62087,-0.02438,0.0044,-0.02851
-4.37211,-0.32213,8.59453,-0.02425,0.00466,-0.02838
-4.37211,-0.32213,8.59453,-0.02425,0.00466,-0.02838
-4.37211,-0.32213,8.59453,-0.02425,0.00466,-0.02838
-4.38289,-0.33171,8.60531,-0.02478,0.0048,-0.02891
-4.36612,-0.35446,8.59333,-0.02465,0.00506,-0.02891
-4.36612,-0.35446,8.59333,-0.02465,0.00506,-0.02891
-4.36612,-0.35446,8.59333,-0.02465,0.00506,-0.02891
-4.36612,-0.35446,8.59333,-0.02465,0.00506,-0.02891
-3.82485,-0.21316,8.59692,-0.02491,0.00879,-0.02625
-3.82485,-0.21316,8.59692,-0.02491,0.00879,-0.02625
-3.82485,-0.21316,8.59692,-0.02491,0.00879,-0.02625
-3.82485,-0.21316,8.59692,-0.02491,0.00879,-0.02625
-4.8571,-0.2419,8.86038,-0.04237,0.21184,-0.02665
-3.73144,-0.59516,8.38137,-0.04663,0.26993,-0.01412
-3.73144,-0.59516,8.38137,-0.04663,0.26993,-0.01412
-3.73144,-0.59516,8.38137,-0.04663,0.26993,-0.01412
-3.1243,0.10658,8.65201,-0.03424,0.29231,-0.02092
-3.1243,0.10658,8.65201,-0.03424,0.29231,-0.02092
-4.94332,-0.4335,8.26881,-0.0409,0.34107,-0.03531
-4.94332,-0.4335,8.26881,-0.0409,0.34107,-0.03531
-5.54327,0.00838,8.73703,-0.03944,0.31496,-0.01839
-5.54327,0.00838,8.73703,-0.03944,0.31496,-0.01839
-5.54327,0.00838,8.73703,-0.03944,0.31496,-0.01839
-4.92536,-0.56163,8.41251,-0.04836,0.31602,-0.02238
-3.38297,-0.2383,8.44244,-0.0433,0.29271,-0.02678
-3.38297,-0.2383,8.44244,-0.0433,0.29271,-0.02678
-3.38297,-0.2383,8.44244,-0.0433,0.29271,-0.02678
-4.01166,-0.31974,8.42448,-0.04303,0.29537,-0.02864
-4.96727,-0.27183,8.47118,-0.0393,0.31642,-0.03504
-4.96727,-0.27183,8.47118,-0.0393,0.31642,-0.03504
-4.96727,-0.27183,8.47118,-0.0393,0.31642,-0.03504
-5.27024,-0.18921,8.45681,-0.0393,0.32229,-0.01745
-5.27024,-0.18921,8.45681,-0.0393,0.32229,-0.01745
-4.36612,-0.38081,8.33706,-0.04117,0.33628,-0.01319
-4.36612,-0.38081,8.33706,-0.04117,0.33628,-0.01319
-3.78772,-0.3353,8.16223,-0.04237,0.32881,-0.01892
-3.78772,-0.3353,8.16223,-0.04237,0.32881,-0.01892
-3.78772,-0.3353,8.16223,-0.04237,0.32881,-0.01892
-4.10746,-0.18921,8.27719,-0.04183,0.31283,-0.02558
-6.19592,-0.35686,8.48436,-0.04463,0.32895,-0.0389
-6.19592,-0.35686,8.48436,-0.04463,0.32895,-0.0389
-6.19592,-0.35686,8.48436,-0.04463,0.32895,-0.0389
-6.19592,-0.35686,8.48436,-0.04463,0.32895,-0.0389
-3.79132,-0.51972,8.16462,-0.0445,0.31949,-0.02372
-3.79132,-0.51972,8.16462,-0.0445,0.31949,-0.02372
-3.79132,-0.51972,8.16462,-0.0445,0.31949,-0.02372
-3.79132,-0.51972,8.16462,-0.0445,0.31949,-0.02372
-3.97573,-0.39997,8.25683,-0.04157,0.32735,-0.02425
-4.63436,-0.40596,8.08798,-0.0385,0.31363,-0.02305
-4.63436,-0.40596,8.08798,-0.0385,0.31363,-0.02305
-4.63436,-0.40596,8.08798,-0.0385,0.31363,-0.02305
-6.36476,-0.23591,8.38975,-0.03944,0.31642,-0.03451
-6.36476,-0.23591,8.38975,-0.03944,0.31642,-0.03451
-5.07984,-0.20717,8.37179,-0.0417,0.28951,-0.02891
-5.07984,-0.20717,8.37179,-0.0417,0.28951,-0.02891
-3.5099,-0.29219,8.07481,-0.0449,0.30563,-0.02851
-3.5099,-0.29219,8.07481,-0.0449,0.30563,-0.02851
-3.5099,-0.29219,8.07481,-0.0449,0.30563,-0.02851
-4.54575,-0.55924,8.12271,-0.0465,0.33401,-0.03051
-5.6259,-0.58798,8.27719,-0.04143,0.31536,-0.02758
-5.6259,-0.58798,8.27719,-0.04143,0.31536,-0.02758
-5.6259,-0.58798,8.27719,-0.04143,0.31536,-0.02758
-6.19113,-0.39638,8.3215,-0.03944,0.31229,-0.03504
-4.50144,-0.20358,8.18857,-0.03864,0.29924,-0.02891
-4.50144,-0.20358,8.18857,-0.03864,0.29924,-0.02891
-4.50144,-0.20358,8.18857,-0.03864,0.29924,-0.02891
-3.93621,-0.18801,8.02451,-0.04303,0.32229,-0.02265
-3.93621,-0.18801,8.02451,-0.04303,0.32229,-0.02265
-4.88704,-0.35686,7.99218,-0.04623,0.33628,-0.02345
-4.88704,-0.35686,7.99218,-0.04623,0.33628,-0.02345
-6.22106,-0.53409,8.18139,-0.04343,0.3039,-0.02665
-6.22106,-0.53409,8.18139,-0.04343,0.3039,-0.02665
-6.22106,-0.53409,8.18139,-0.04343,0.3039,-0.02665
-5.84744,-0.45026,8.24485,-0.0413,0.28778,-0.03664
-4.24038,-0.34249,7.99697,-0.03997,0.28485,-0.03331
-4.24038,-0.34249,7.99697,-0.03997,0.28485,-0.03331
-4.24038,-0.34249,7.99697,-0.03997,0.28485,-0.03331
-4.24038,-0.34249,7.99697,-0.03997,0.28485,-0.03331
-5.46544,-0.35207,7.90356,-0.04357,0.34653,-0.02238
-5.46544,-0.35207,7.90356,-0.04357,0.34653,-0.02238
-5.46544,-0.35207,7.90356,-0.04357,0.34653,-0.02238
-5.46544,-0.35207,7.90356,-0.04357,0.34653,-0.02238
-6.23064,-0.38081,8.02571,-0.04157,0.30843,-0.02185
-5.44029,-0.44308,8.01733,-0.04197,0.29764,-0.03317
-5.44029,-0.44308,8.01733,-0.04197,0.29764,-0.03317
-5.44029,-0.44308,8.01733,-0.04197,0.29764,-0.03317
-4.15895,-0.35207,7.791,-0.04263,0.30736,-0.03624
-4.64394,-0.26345,7.86165,-0.04477,0.33947,-0.02465
-4.64394,-0.26345,7.86165,-0.04477,0.33947,-0.02465
-4.64394,-0.26345,7.86165,-0.04477,0.33947,-0.02465
-6.2055,-0.38919,8.02212,-0.04557,0.35799,-0.01652
-6.2055,-0.38919,8.02212,-0.04557,0.35799,-0.01652
-6.11808,-0.36524,7.93829,-0.0417,0.3107,-0.01972
-6.11808,-0.36524,7.93829,-0.0417,0.3107,-0.01972
-4.99481,-0.36045,7.79938,-0.03984,0.28964,-0.02745
-4.99481,-0.36045,7.79938,-0.03984,0.28964,-0.02745
-4.99481,-0.36045,7.79938,-0.03984,0.28964,-0.02745
-4.96009,-0.32093,7.73951,-0.04557,0.33708,-0.02625
-4.96009,-0.32093,7.73951,-0.04557,0.33708,-0.02625
-4.96009,-0.32093,7.73951,-0.04557,0.33708,-0.02625
-4.96009,-0.32093,7.73951,-0.04557,0.33708,-0.02625
-5.8678,-0.53768,7.68083,-0.06462,0.34534,-0.02425
-6.2031,-0.55684,7.98979,-0.09073,0.33361,-0.04157
-6.2031,-0.55684,7.98979,-0.09073,0.33361,-0.04157
-6.2031,-0.55684,7.98979,-0.09073,0.33361,-0.04157
-5.03194,-0.39757,7.71316,-0.05769,0.30883,-0.03944
-5.03194,-0.39757,7.71316,-0.05769,0.30883,-0.03944
-4.36013,-0.50535,7.62095,-0.04823,0.31109,-0.0389
-4.36013,-0.50535,7.62095,-0.04823,0.31109,-0.0389
-5.48699,-0.48739,7.70478,-0.04756,0.36532,-0.01958
-5.48699,-0.48739,7.70478,-0.04756,0.36532,-0.01958
-5.48699,-0.48739,7.70478,-0.04756,0.36532,-0.01958
-6.82221,-0.44907,7.82932,-0.04596,0.35879,-0.01332
-6.04263,-0.29698,7.82573,-0.04104,0.31896,-0.01932
-6.04263,-0.29698,7.82573,-0.04104,0.31896,-0.01932
-6.04263,-0.29698,7.82573,-0.04104,0.31896,-0.01932
-6.04263,-0.29698,7.82573,-0.04104,0.31896,-0.01932
-4.73136,-0.46942,7.53234,-0.04263,0.30683,-0.03797
-4.73136,-0.46942,7.53234,-0.04263,0.30683,-0.03797
-4.73136,-0.46942,7.53234,-0.04263,0.30683,-0.03797
-4.73136,-0.46942,7.53234,-0.04263,0.30683,-0.03797
-6.37434,-0.61073,7.70119,-0.04623,0.33947,-0.02785
-6.70725,-0.41673,7.82213,-0.0445,0.32762,-0.02785
-6.70725,-0.41673,7.82213,-0.0445,0.32762,-0.02785
-6.70725,-0.41673,7.82213,-0.0445,0.32762,-0.02785
-5.44747,-0.41075,7.58024,-0.04104,0.3019,-0.02518
-5.44747,-0.41075,7.58024,-0.04104,0.3019,-0.02518
-4.5697,-0.23232,7.51198,-0.0397,0.29631,-0.02585
-4.5697,-0.23232,7.51198,-0.0397,0.29631,-0.02585
-5.07145,-0.42392,7.312,-0.0425,0.32322,-0.0377
-5.07145,-0.42392,7.312,-0.0425,0.32322,-0.0377
-5.07145,-0.42392,7.312,-0.0425,0.32322,-0.0377
-6.43781,-0.50056,7.54431,-0.0449,0.32389,-0.02198
-6.43781,-0.50056,7.54431,-0.0449,0.32389,-0.02198
-6.43781,-0.50056,7.54431,-0.0449,0.32389,-0.02198
-6.43781,-0.50056,7.54431,-0.0449,0.32389,-0.02198
-5.22114,-0.32093,7.41378,-0.0421,0.30377,-0.02158
-4.96727,-0.2395,7.41019,-0.0405,0.28845,-0.02585
-4.96727,-0.2395,7.41019,-0.0405,0.28845,-0.02585
-4.96727,-0.2395,7.41019,-0.0405,0.28845,-0.02585
-5.4798,-0.32692,7.24733,-0.04104,0.3047,-0.03664
-5.4798,-0.32692,7.24733,-0.04104,0.3047,-0.03664
-6.76114,-0.40476,7.43294,-0.04237,0.31816,-0.02585
-6.76114,-0.40476,7.43294,-0.04237,0.31816,-0.02585
-5.87738,-0.51134,7.34433,-0.0429,0.30976,-0.02798
-5.87738,-0.51134,7.34433,-0.0429,0.30976,-0.02798
-5.87738,-0.51134,7.34433,-0.0429,0.30976,-0.02798
-4.99122,-0.34728,7.18506,-0.04077,0.3071,-0.02478
-5.18881,-0.21555,7.27248,-0.0405,0.30217,-0.02478
-5.18881,-0.21555,7.27248,-0.0405,0.30217,-0.02478
-5.18881,-0.21555,7.27248,-0.0405,0.30217,-0.02478
-5.18881,-0.21555,7.27248,-0.0405,0.30217,-0.02478
-6.6342,-0.20956,7.44492,-0.04303,0.32255,-0.02292
-6.6342,-0.20956,7.44492,-0.04303,0.32255,-0.02292
-6.6342,-0.20956,7.44492,-0.04303,0.32255,-0.02292
-6.6342,-0.20956,7.44492,-0.04303,0.32255,-0.02292
-5.27144,-0.56403,7.09046,-0.04503,0.32135,-0.02025
-5.22234,-0.43589,7.10722,-0.0429,0.32948,-0.01865
-5.22234,-0.43589,7.10722,-0.0429,0.32948,-0.01865
-5.22234,-0.43589,7.10722,-0.0429,0.32948,-0.01865
-5.5325,-0.37602,7.12039,-0.03997,0.3075,-0.02172
-5.5325,-0.37602,7.12039,-0.03997,0.3075,-0.02172
-7.18386,-0.32812,7.29164,-0.04064,0.31789,-0.03437
-7.18386,-0.32812,7.29164,-0.04064,0.31789,-0.03437
-6.58511,-0.26345,7.30601,-0.04197,0.30936,-0.02918
-6.58511,-0.26345,7.30601,-0.04197,0.30936,-0.02918
-6.58511,-0.26345,7.30601,-0.04197,0.30936,-0.02918
-5.51094,-0.58798,7.06531,-0.04503,0.33081,-0.03144
-5.51094,-0.58798,7.06531,-0.04503,0.33081,-0.03144
-5.51094,-0.58798,7.06531,-0.04503,0.33081,-0.03144
-5.51094,-0.58798,7.06531,-0.04503,0.33081,-0.03144
-5.91809,-0.54008,7.00663,-0.0417,0.32442,-0.02531
-7.43055,-0.40596,7.21021,-0.04024,0.33441,-0.03957
-7.43055,-0.40596,7.21021,-0.04024,0.33441,-0.03957
-7.43055,-0.40596,7.21021,-0.04024,0.33441,-0.03957
-6.20669,-0.28501,7.14674,-0.04077,0.32282,-0.03277
-6.20669,-0.28501,7.14674,-0.04077,0.32282,-0.03277
-5.2403,-0.37003,6.89406,-0.0445,0.34174,-0.02238
-5.2403,-0.37003,6.89406,-0.0445,0.34174,-0.02238
-5.94564,-0.54127,6.96951,-0.04663,0.34987,-0.02385
-5.94564,-0.54127,6.96951,-0.04663,0.34987,-0.02385
-5.94564,-0.54127,6.96951,-0.04663,0.34987,-0.02385
-6.85335,-0.66821,6.99346,-0.04357,0.32482,-0.02518
-7.19823,-0.43589,7.10842,-0.0413,0.30936,-0.03624
-7.19823,-0.43589,7.10842,-0.0413,0.30936,-0.03624
-7.19823,-0.43589,7.10842,-0.0413,0.30936,-0.03624
-7.19823,-0.43589,7.10842,-0.0413,0.30936,-0.03624
-5.27743,-0.24549,6.91322,-0.04117,0.33401,-0.02238
-5.27743,-0.24549,6.91322,-0.04117,0.33401,-0.02238
-5.27743,-0.24549,6.91322,-0.04117,0.33401,-0.02238
-5.27743,-0.24549,6.91322,-0.04117,0.33401,-0.02238
-6.18514,-0.49936,6.7815,-0.04543,0.36958,-0.02038
-7.18147,-0.56522,6.924,-0.04317,0.33468,-0.02025
-7.18147,-0.56522,6.924,-0.04317,0.33468,-0.02025
-7.18147,-0.56522,6.924,-0.04317,0.33468,-0.02025
-7.18985,-0.49697,6.98148,-0.04223,0.32535,-0.03677
-7.18985,-0.49697,6.98148,-0.04223,0.32535,-0.03677
-5.62351,-0.29938,6.70366,-0.04104,0.3079,-0.03251
-5.62351,-0.29938,6.70366,-0.04104,0.3079,-0.03251
-5.62949,-0.18082,6.74677,-0.04317,0.33921,-0.02451
-5.62949,-0.18082,6.74677,-0.04317,0.33921,-0.02451
-5.62949,-0.18082,6.74677,-0.04317,0.33921,-0.02451
-7.27008,-0.53768,6.79826,-0.0421,0.3095,-0.02491
-7.27008,-0.53768,6.79826,-0.0421,0.3095,-0.02491
-7.27008,-0.53768,6.79826,-0.0421,0.3095,-0.02491
-7.27008,-0.53768,6.79826,-0.0421,0.3095,-0.02491
-6.61624,-0.55205,6.78749,-0.04117,0.29671,-0.03531
-5.39598,-0.3868,6.50128,-0.04077,0.29751,-0.03664
-5.39598,-0.3868,6.50128,-0.04077,0.29751,-0.03664
-5.39598,-0.3868,6.50128,-0.04077,0.29751,-0.03664
-5.99234,-0.28022,6.56355,-0.0433,0.33361,-0.02798
-5.99234,-0.28022,6.56355,-0.0433,0.33361,-0.02798
-7.61377,-0.4826,6.74677,-0.04517,0.34907,-0.02345
-7.61377,-0.4826,6.74677,-0.04517,0.34907,-0.02345
-7.02699,-0.36524,6.69767,-0.0421,0.29924,-0.02811
-7.02699,-0.36524,6.69767,-0.0421,0.29924,-0.02811
-7.02699,-0.36524,6.69767,-0.0421,0.29924,-0.02811
-6.02946,-0.53289,6.50727,-0.04143,0.29791,-0.03571
-5.48699,-0.46224,6.41626,-0.04183,0.30816,-0.0389
-5.48699,-0.46224,6.41626,-0.04183,0.30816,-0.0389
-5.48699,-0.46224,6.41626,-0.04183,0.30816,-0.0389
-5.48699,-0.46224,6.41626,-0.04183,0.30816,-0.0389
-8.11552,-0.479,6.67731,-0.04503,0.35853,-0.01705
-8.11552,-0.479,6.67731,-0.04503,0.35853,-0.01705
-8.11552,-0.479,6.67731,-0.04503,0.35853,-0.01705
-8.11552,-0.479,6.67731,-0.04503,0.35853,-0.01705
-7.20063,-0.39398,6.59708,-0.04183,0.31283,-0.02318
-6.01629,-0.47541,6.37554,-0.04117,0.29697,-0.02731
-6.01629,-0.47541,6.37554,-0.04117,0.29697,-0.02731
-6.01629,-0.47541,6.37554,-0.04117,0.29697,-0.02731
-5.84505,-0.5772,6.33842,-0.04223,0.30643,-0.03531
-5.84505,-0.5772,6.33842,-0.04223,0.30643,-0.03531
-6.76354,-0.6275,6.32764,-0.0441,0.33548,-0.02545
-6.76354,-0.6275,6.32764,-0.0441,0.33548,-0.02545
-8.02691,-0.46583,6.57313,-0.0437,0.34054,-0.01985
-8.02691,-0.46583,6.57313,-0.0437,0.34054,-0.01985
-8.02691,-0.46583,6.57313,-0.0437,0.34054,-0.01985
-5.91929,-0.33411,6.34081,-0.04117,0.30657,-0.02745
-5.91929,-0.33411,6.34081,-0.04117,0.30657,-0.02745
-5.91929,-0.33411,6.34081,-0.04117,0.30657,-0.02745
-5.91929,-0.33411,6.34081,-0.04117,0.30657,-0.02745
-6.17556,-0.61552,6.14083,-0.0441,0.33161,-0.04357
-7.56467,-0.6263,6.33962,-0.0449,0.35573,-0.02571
-7.56467,-0.6263,6.33962,-0.0449,0.35573,-0.02571
-7.56467,-0.6263,6.33962,-0.0449,0.35573,-0.02571
-7.74669,-0.5784,6.3468,-0.04463,0.35066,-0.02145
-7.74669,-0.5784,6.3468,-0.04463,0.35066,-0.02145
-6.67971,-0.39757,6.30369,-0.03984,0.31602,-0.02465
-6.67971,-0.39757,6.30369,-0.03984,0.31602,-0.02465
-6.24022,-0.31375,6.18394,-0.03984,0.30257,-0.02292
-6.24022,-0.31375,6.18394,-0.03984,0.30257,-0.02292
-6.24022,-0.31375,6.18394,-0.03984,0.30257,-0.02292
-6.15161,-0.45386,6.07377,-0.0417,0.30736,-0.03384
-7.84848,-0.62989,6.28693,-0.04503,0.33188,-0.02491
-7.84848,-0.62989,6.28693,-0.04503,0.33188,-0.02491
-7.84848,-0.62989,6.28693,-0.04503,0.33188,-0.02491
-7.84848,-0.62989,6.28693,-0.04503,0.33188,-0.02491
-6.41027,-0.41913,6.02108,-0.04104,0.31043,-0.02611
-6.41027,-0.41913,6.02108,-0.04104,0.31043,-0.02611
-6.41027,-0.41913,6.02108,-0.04104,0.31043,-0.02611
-6.41027,-0.41913,6.02108,-0.04104,0.31043,-0.02611
-6.22705,-0.24429,6.08096,-0.0409,0.31589,-0.02332
-6.84856,-0.46344,5.89175,-0.0421,0.33601,-0.03504
-6.84856,-0.46344,5.89175,-0.0421,0.33601,-0.03504
-6.84856,-0.46344,5.89175,-0.0421,0.33601,-0.03504
-7.77423,-0.40835,6.17316,-0.04357,0.33721,-0.02305
-7.77423,-0.40835,6.17316,-0.04357,0.33721,-0.02305
-6.84736,-0.64666,5.91929,-0.04383,0.33095,-0.02531
-6.84736,-0.64666,5.91929,-0.04383,0.33095,-0.02531
-6.35758,-0.3377,5.8175,-0.04143,0.32122,-0.02491
-6.35758,-0.3377,5.8175,-0.04143,0.32122,-0.02491
-6.35758,-0.3377,5.8175,-0.04143,0.32122,-0.02491
-7.82692,-0.41194,5.95522,-0.0417,0.31922,-0.03557
-7.82692,-0.41194,5.95522,-0.0417,0.31922,-0.03557
-7.82692,-0.41194,5.95522,-0.0417,0.31922,-0.03557
-7.82692,-0.41194,5.95522,-0.0417,0.31922,-0.03557
-7.64371,-0.39398,6.01988,-0.04263,0.3091,-0.03064
-6.49889,-0.59516,5.81391,-0.04317,0.31083,-0.03131
-6.49889,-0.59516,5.81391,-0.04317,0.31083,-0.03131
-6.49889,-0.59516,5.81391,-0.04317,0.31083,-0.03131
-6.25938,-0.51852,5.69655,-0.04277,0.31163,-0.03304
-6.25938,-0.51852,5.69655,-0.04277,0.31163,-0.03304
-6.72402,-0.45386,5.69416,-0.04183,0.31269,-0.03064
-6.72402,-0.45386,5.69416,-0.04183,0.31269,-0.03064
-8.38616,-0.42033,5.89534,-0.0409,0.31869,-0.0401
-8.38616,-0.42033,5.89534,-0.0409,0.31869,-0.0401
-8.38616,-0.42033,5.89534,-0.0409,0.31869,-0.0401
-7.56946,-0.33051,5.92648,-0.04117,0.30816,-0.03118
-6.24382,-0.46583,5.59716,-0.04383,0.31949,-0.02611
-6.24382,-0.46583,5.59716,-0.04383,0.31949,-0.02611
-6.24382,-0.46583,5.59716,-0.04383,0.31949,-0.02611
-6.24382,-0.46583,5.59716,-0.04383,0.31949,-0.02611
-7.2617,-0.6251,5.61153,-0.04197,0.30523,-0.02585
-7.2617,-0.6251,5.61153,-0.04197,0.30523,-0.02585
-7.2617,-0.6251,5.61153,-0.04197,0.30523,-0.02585
-7.2617,-0.6251,5.61153,-0.04197,0.30523,-0.02585
-8.39814,-0.42751,5.81271,-0.0405,0.3063,-0.0373
-7.32996,-0.42631,5.75164,-0.04117,0.29617,-0.02971
-7.32996,-0.42631,5.75164,-0.04117,0.29617,-0.02971
-7.32996,-0.42631,5.75164,-0.04117,0.29617,-0.02971
-6.15999,-0.45386,5.55285,-0.04277,0.31109,-0.02478
-6.15999,-0.45386,5.55285,-0.04277,0.31109,-0.02478
-6.94196,-0.65025,5.49657,-0.04477,0.33494,-0.02984
-6.94196,-0.65025,5.49657,-0.04477,0.33494,-0.02984
-8.0784,-0.74725,5.60315,-0.04237,0.31229,-0.02838
-8.0784,-0.74725,5.60315,-0.04237,0.31229,-0.02838
-8.0784,-0.74725,5.60315,-0.04237,0.31229,-0.02838
-6.80665,-0.34967,5.43909,-0.0401,0.30457,-0.03411
-6.80665,-0.34967,5.43909,-0.0401,0.30457,-0.03411
-6.80665,-0.34967,5.43909,-0.0401,0.30457,-0.03411
-6.80665,-0.34967,5.43909,-0.0401,0.30457,-0.03411
-6.41266,-0.29339,5.40197,-0.04357,0.32975,-0.02292
-7.14434,-0.58199,5.35526,-0.04557,0.34613,-0.02118
-7.14434,-0.58199,5.35526,-0.04557,0.34613,-0.02118
-7.14434,-0.58199,5.35526,-0.04557,0.34613,-0.02118
-8.52866,-0.70414,5.54088,-0.04277,0.31616,-0.02052
-8.52866,-0.70414,5.54088,-0.04277,0.31616,-0.02052
-7.99458,-0.57121,5.46184,-0.0405,0.29364,-0.03331
-7.99458,-0.57121,5.46184,-0.0405,0.29364,-0.03331
-6.5875,-0.31974,5.2403,-0.03997,0.29204,-0.02918
-6.5875,-0.31974,5.2403,-0.03997,0.29204,-0.02918
-6.5875,-0.31974,5.2403,-0.03997,0.29204,-0.02918
-6.62343,-0.21795,5.27503,-0.0425,0.32482,-0.02185
-7.72035,-0.52331,5.28341,-0.04503,0.34534,-0.02185
-7.72035,-0.52331,5.28341,-0.04503,0.34534,-0.02185
-7.72035,-0.52331,5.28341,-0.04503,0.34534,-0.02185
-7.72035,-0.52331,5.28341,-0.04503,0.34534,-0.02185
-7.60778,-0.64666,5.2882,-0.04263,0.3015,-0.03757
-7.60778,-0.64666,5.2882,-0.04263,0.3015,-0.03757
-7.60778,-0.64666,5.2882,-0.04263,0.3015,-0.03757
-7.60778,-0.64666,5.2882,-0.04263,0.3015,-0.03757
-6.33243,-0.35806,5.03194,-0.0417,0.2987,-0.03637
-6.98507,-0.34369,5.08942,-0.04423,0.34813,-0.02438
-6.98507,-0.34369,5.08942,-0.04423,0.34813,-0.02438
-6.98507,-0.34369,5.08942,-0.04423,0.34813,-0.02438
-8.50112,-0.48739,5.27503,-0.0449,0.35613,-0.01532
-8.50112,-0.48739,5.27503,-0.0449,0.35613,-0.01532
-8.17779,-0.4347,5.27743,-0.04263,0.31642,-0.01719
-8.17779,-0.4347,5.27743,-0.04263,0.31642,-0.01719
-7.25451,-0.58079,5.10139,-0.0413,0.3055,-0.02745
-7.25451,-0.58079,5.10139,-0.0413,0.3055,-0.02745
-7.25451,-0.58079,5.10139,-0.0413,0.3055,-0.02745
-7.15273,-0.56762,4.92057,-0.0445,0.34853,-0.02145
-7.15273,-0.56762,4.92057,-0.0445,0.34853,-0.02145
-7.15273,-0.56762,4.92057,-0.0445,0.34853,-0.02145
-7.15273,-0.56762,4.92057,-0.0445,0.34853,-0.02145
-8.16223,-0.41913,5.1445,-0.0393,0.29631,-0.02678
-8.16223,-0.41913,5.1445,-0.0393,0.29631,-0.02678
-8.16223,-0.41913,5.1445,-0.0393,0.29631,-0.02678
-8.16223,-0.41913,5.1445,-0.0393,0.29631,-0.02678
-6.85574,-0.42033,4.91099,-0.04024,0.29391,-0.03331
-6.4917,-0.6263,4.78645,-0.04303,0.30363,-0.04024
-6.4917,-0.6263,4.78645,-0.04303,0.30363,-0.04024
-6.4917,-0.6263,4.78645,-0.04303,0.30363,-0.04024
-7.84129,-0.7209,4.87387,-0.04423,0.34214,-0.02678
-7.84129,-0.7209,4.87387,-0.04423,0.34214,-0.02678
-9.19927,-0.56403,5.08463,-0.04317,0.34214,-0.02052
-9.19927,-0.56403,5.08463,-0.04317,0.34214,-0.02052
-8.01254,-0.44787,4.97206,-0.03984,0.2987,-0.02372
-8.01254,-0.44787,4.97206,-0.03984,0.2987,-0.02372
-8.01254,-0.44787,4.97206,-0.03984,0.2987,-0.02372
-6.6342,-0.3389,4.77088,-0.03957,0.28578,-0.02451
-6.71683,-0.73886,4.64035,-0.04397,0.30603,-0.03264
-6.71683,-0.73886,4.64035,-0.04397,0.30603,-0.03264
-6.71683,-0.73886,4.64035,-0.04397,0.30603,-0.03264
-6.71683,-0.73886,4.64035,-0.04397,0.30603,-0.03264
-8.99689,-0.58079,4.91817,-0.04237,0.32535,-0.02731
-8.99689,-0.58079,4.91817,-0.04237,0.32535,-0.02731
-8.99689,-0.58079,4.91817,-0.04237,0.32535,-0.02731
-8.99689,-0.58079,4.91817,-0.04237,0.32535,-0.02731
-7.38864,-0.36524,4.68825,-0.03877,0.28805,-0.02878
-6.60546,-0.25866,4.59125,-0.0401,0.28911,-0.02731
-6.60546,-0.25866,4.59125,-0.0401,0.28911,-0.02731
-6.60546,-0.25866,4.59125,-0.0401,0.28911,-0.02731
-6.89167,-0.73886,4.53138,-0.04397,0.31269,-0.03691
-6.89167,-0.73886,4.53138,-0.04397,0.31269,-0.03691
-9.03282,-0.74844,4.89782,-0.0437,0.32628,-0.02705
-8.39694,-0.61432,4.68226,-0.04237,0.32069,-0.02931
-8.39694,-0.61432,4.68226,-0.04237,0.32069,-0.02931
-8.39694,-0.61432,4.68226,-0.04237,0.32069,-0.02931
-8.39694,-0.61432,4.68226,-0.04237,0.32069,-0.02931
-6.89406,-0.25267,4.50383,-0.03997,0.28485,-0.02145
-6.89406,-0.25267,4.50383,-0.03997,0.28485,-0.02145
-6.89406,-0.25267,4.50383,-0.03997,0.28485,-0.02145
-6.89406,-0.25267,4.50383,-0.03997,0.28485,-0.02145
-7.37187,-0.48739,4.43438,-0.04263,0.31309,-0.03477
-8.69632,-0.6251,4.68346,-0.04437,0.33055,-0.03064
-8.69632,-0.6251,4.68346,-0.04437,0.33055,-0.03064
-8.69632,-0.6251,4.68346,-0.04437,0.33055,-0.03064
-7.87961,-0.65384,4.53377,-0.04317,0.32442,-0.03877
-7.87961,-0.65384,4.53377,-0.04317,0.32442,-0.03877
-7.24972,-0.47541,4.27391,-0.04383,0.32935,-0.0413
-7.24972,-0.47541,4.27391,-0.04383,0.32935,-0.0413
-7.09046,-0.34369,4.30146,-0.04197,0.31203,-0.03317
-7.09046,-0.34369,4.30146,-0.04197,0.31203,-0.03317
-7.09046,-0.34369,4.30146,-0.04197,0.31203,-0.03317
-8.66877,-0.54008,4.4224,-0.04303,0.33028,-0.0389
-8.48555,-0.45026,4.55533,-0.04263,0.31975,-0.03224
-8.48555,-0.45026,4.55533,-0.04263,0.31975,-0.03224
-8.48555,-0.45026,4.55533,-0.04263,0.31975,-0.03224
-8.48555,-0.45026,4.55533,-0.04263,0.31975,-0.03224
-7.26649,-0.50056,4.135,-0.04383,0.31896,-0.02745
-7.26649,-0.50056,4.135,-0.04383,0.31896,-0.02745
-7.26649,-0.50056,4.135,-0.04383,0.31896,-0.02745
-7.26649,-0.50056,4.135,-0.04383,0.31896,-0.02745
-7.23056,-0.58558,4.14219,-0.04143,0.30696,-0.02265
-9.35375,-0.50535,4.40564,-0.0413,0.32015,-0.03304
-9.35375,-0.50535,4.40564,-0.0413,0.32015,-0.03304
-9.35375,-0.50535,4.40564,-0.0413,0.32015,-0.03304
-8.40772,-0.4323,4.3757,-0.04037,0.30563,-0.02971
-8.40772,-0.4323,4.3757,-0.04037,0.30563,-0.02971
-7.26769,-0.479,4.11943,-0.0433,0.32309,-0.02531
-7.51677,-0.67779,4.07632,-0.0461,0.33175,-0.02505
-7.51677,-0.67779,4.07632,-0.0461,0.33175,-0.02505
-7.51677,-0.67779,4.07632,-0.0461,0.33175,-0.02505
-7.51677,-0.67779,4.07632,-0.0461,0.33175,-0.02505
-9.52739,-0.55085,4.24517,-0.04197,0.32602,-0.03517
-9.52739,-0.55085,4.24517,-0.04197,0.32602,-0.03517
-9.52739,-0.55085,4.24517,-0.04197,0.32602,-0.03517
-9.52739,-0.55085,4.24517,-0.04197,0.32602,-0.03517
-7.85447,-0.41075,4.11584,-0.0397,0.2983,-0.03158
-7.118,-0.44428,3.87514,-0.04383,0.33241,-0.02118
-7.118,-0.44428,3.87514,-0.04383,0.33241,-0.02118
-7.118,-0.44428,3.87514,-0.04383,0.33241,-0.02118
-7.50839,-0.77239,3.94579,-0.04596,0.33028,-0.01972
-7.50839,-0.77239,3.94579,-0.04596,0.33028,-0.01972
-8.78733,-0.76521,3.99968,-0.04303,0.31456,-0.02185
-8.78733,-0.76521,3.99968,-0.04303,0.31456,-0.02185
-9.33938,-0.55564,4.11345,-0.04064,0.31283,-0.03424
-9.33938,-0.55564,4.11345,-0.04064,0.31283,-0.03424
-9.33938,-0.55564,4.11345,-0.04064,0.31283,-0.03424
-7.597,-0.3365,3.87993,-0.0385,0.29191,-0.03118
-7.05453,-0.28141,3.77575,-0.04423,0.32535,-0.01919
-7.05453,-0.28141,3.77575,-0.04423,0.32535,-0.01919
-7.05453,-0.28141,3.77575,-0.04423,0.32535,-0.01919
-7.05453,-0.28141,3.77575,-0.04423,0.32535,-0.01919
-9.0903,-0.74844,3.99849,-0.04397,0.31243,-0.02345
-9.0903,-0.74844,3.99849,-0.04397,0.31243,-0.02345
-9.0903,-0.74844,3.99849,-0.04397,0.31243,-0.02345
-9.0903,-0.74844,3.99849,-0.04397,0.31243,-0.02345
-8.96456,-0.64785,3.92424,-0.04383,0.3035,-0.03651
-7.37906,-0.21675,3.6069,-0.04117,0.28858,-0.03291
-7.37906,-0.21675,3.6069,-0.04117,0.28858,-0.03291
-7.37906,-0.21675,3.6069,-0.04117,0.28858,-0.03291
-7.46049,-0.28381,3.67995,-0.0453,0.33081,-0.01759
-7.46049,-0.28381,3.67995,-0.0453,0.33081,-0.01759
-9.58008,-0.63229,3.78174,-0.05023,0.32762,-0.0052
-8.77415,-0.63708,3.69671,-0.03651,0.16321,-0.01013
-8.77415,-0.63708,3.69671,-0.03651,0.16321,-0.01013
-8.77415,-0.63708,3.69671,-0.03651,0.16321,-0.01013
-8.77415,-0.63708,3.69671,-0.03651,0.16321,-0.01013
-8.21252,-0.45865,3.62127,-0.02571,0.02052,-0.02531
-8.21252,-0.45865,3.62127,-0.02571,0.02052,-0.02531
-8.21252,-0.45865,3.62127,-0.02571,0.02052,-0.02531
-8.21252,-0.45865,3.62127,-0.02571,0.02052,-0.02531
-8.1754,-0.479,3.67396,-0.02625,0.00626,-0.03078
-8.12989,-0.60115,3.73024,-0.02625,0.00226,-0.03198
-8.12989,-0.60115,3.73024,-0.02625,0.00226,-0.03198
-8.12989,-0.60115,3.73024,-0.02625,0.00226,-0.03198
-8.13468,-0.62271,3.73743,-0.02558,0.00386,-0.02971
-8.13468,-0.62271,3.73743,-0.02558,0.00386,-0.02971
-8.16462,-0.55085,3.77096,-0.02451,0.00799,-0.02505
-8.16462,-0.55085,3.77096,-0.02451,0.00799,-0.02505
-8.19576,-0.49457,3.66677,-0.02372,0.00973,-0.02318
-8.19576,-0.49457,3.66677,-0.02372,0.00973,-0.02318
-8.19576,-0.49457,3.66677,-0.02372,0.00973,-0.02318
-8.19216,-0.47541,3.70031,-0.02451,0.00733,-0.02518
-8.19456,-0.52211,3.64522,-0.02585,0.0048,-0.02864
-8.19456,-0.52211,3.64522,-0.02585,0.0048,-0.02864
-8.19456,-0.52211,3.64522,-0.02585,0.0048,-0.02864
-8.19456,-0.52211,3.64522,-0.02585,0.0048,-0.02864
-8.13229,-0.61552,3.71947,-0.02571,0.00306,-0.03118
-8.13229,-0.61552,3.71947,-0.02571,0.00306,-0.03118
-8.13229,-0.61552,3.71947,-0.02571,0.00306,-0.03118
-8.13229,-0.61552,3.71947,-0.02571,0.00306,-0.03118
-8.1275,-0.56522,3.74461,-0.02478,0.00626,-0.02745
-8.17779,-0.5305,3.68594,-0.02425,0.00813,-0.02465
-8.17779,-0.5305,3.68594,-0.02425,0.00813,-0.02465
-8.17779,-0.5305,3.68594,-0.02425,0.00813,-0.02465
-8.1766,-0.4802,3.68594,-0.02372,0.00799,-0.02451
-8.1766,-0.4802,3.68594,-0.02372,0.00799,-0.02451
-8.18019,-0.49816,3.66917,-0.02425,0.0052,-0.02705
-8.16103,-0.51972,3.67995,-0.02478,0.00226,-0.03024
-8.16103,-0.51972,3.67995,-0.02478,0.00226,-0.03024
-8.16103,-0.51972,3.67995,-0.02478,0.00226,-0.03024
-8.16103,-0.51972,3.67995,-0.02478,0.00226,-0.03024
-8.11552,-0.60354,3.70869,-0.02465,0.0016,-0.03038
-8.11552,-0.60354,3.70869,-0.02465,0.0016,-0.03038
-8.11552,-0.60354,3.70869,-0.02465,0.0016,-0.03038
-8.11552,-0.60354,3.70869,-0.02465,0.0016,-0.03038
-8.14905,-0.55804,3.71827,-0.02385,0.00506,-0.02771
-8.16702,-0.50295,3.68833,-0.02385,0.00719,-0.02571
-8.16702,-0.50295,3.68833,-0.02385,0.00719,-0.02571
-8.16702,-0.50295,3.68833,-0.02385,0.00719,-0.02571
-8.16941,-0.47541,3.65241,-0.02425,0.006,-0.02638
-8.16941,-0.47541,3.65241,-0.02425,0.006,-0.02638
-8.16342,-0.49337,3.67875,-0.02518,0.0036,-0.02825
-8.16342,-0.49337,3.67875,-0.02518,0.0036,-0.02825
-8.14905,-0.53169,3.70989,-0.02585,0.00173,-0.03078
-8.14905,-0.53169,3.70989,-0.02585,0.00173,-0.03078
-8.14905,-0.53169,3.70989,-0.02585,0.00173,-0.03078
-8.13708,-0.55325,3.73503,-0.02598,0.0016,-0.03091
-8.12391,-0.56762,3.753,-0.02505,0.00413,-0.02904
-8.12391,-0.56762,3.753,-0.02505,0.00413,-0.02904
-8.12391,-0.56762,3.753,-0.02505,0.00413,-0.02904
-8.12391,-0.56762,3.753,-0.02505,0.00413,-0.02904
-8.18139,-0.5281,3.65001,-0.02345,0.006,-0.02598
-8.18139,-0.5281,3.65001,-0.02345,0.006,-0.02598
-8.18139,-0.5281,3.65001,-0.02345,0.006,-0.02598
-8.18139,-0.5281,3.65001,-0.02345,0.006,-0.02598
-8.173,-0.48858,3.70869,-0.02358,0.006,-0.02585
-8.15744,-0.52211,3.67995,-0.02478,0.00413,-0.02851
-8.15744,-0.52211,3.67995,-0.02478,0.00413,-0.02851
-8.15744,-0.52211,3.67995,-0.02478,0.00413,-0.02851
-8.14666,-0.53529,3.72306,-0.02518,0.00333,-0.03024
-8.14666,-0.53529,3.72306,-0.02518,0.00333,-0.03024
-8.14426,-0.57241,3.74222,-0.02491,0.00306,-0.02998
-8.14786,-0.57121,3.69911,-0.02425,0.00413,-0.02878
-8.14786,-0.57121,3.69911,-0.02425,0.00413,-0.02878
-8.14786,-0.57121,3.69911,-0.02425,0.00413,-0.02878
-8.14786,-0.57121,3.69911,-0.02425,0.00413,-0.02878
-8.16582,-0.51972,3.69671,-0.02411,0.006,-0.02718
-8.16582,-0.51972,3.69671,-0.02411,0.006,-0.02718
-8.16582,-0.51972,3.69671,-0.02411,0.006,-0.02718
-8.16582,-0.51972,3.69671,-0.02411,0.006,-0.02718
-8.18738,-0.51373,3.68234,-0.02451,0.00506,-0.02745
-8.17899,-0.53768,3.68354,-0.02491,0.00333,-0.02864
-8.17899,-0.53768,3.68354,-0.02491,0.00333,-0.02864
-8.17899,-0.53768,3.68354,-0.02491,0.00333,-0.02864
-8.14307,-0.54247,3.7015,-0.02545,0.0028,-0.02931
-8.14307,-0.54247,3.7015,-0.02545,0.0028,-0.02931
-8.14546,-0.55684,3.72426,-0.02531,0.0036,-0.03024
-8.14546,-0.55684,3.72426,-0.02531,0.0036,-0.03024
-8.13588,-0.56403,3.70869,-0.02478,0.00453,-0.02864
-8.13588,-0.56403,3.70869,-0.02478,0.00453,-0.02864
-8.13588,-0.56403,3.70869,-0.02478,0.00453,-0.02864
-8.15265,-0.55325,3.68833,-0.02372,0.00573,-0.02745
-8.17061,-0.51493,3.67755,-0.02398,0.00613,-0.02731
-8.17061,-0.51493,3.67755,-0.02398,0.00613,-0.02731
-8.17061,-0.51493,3.67755,-0.02398,0.00613,-0.02731
-8.17061,-0.51493,3.67755,-0.02398,0.00613,-0.02731
-8.1754,-0.53289,3.69552,-0.02465,0.00466,-0.02864
-8.1754,-0.53289,3.69552,-0.02465,0.00466,-0.02864
-8.1754,-0.53289,3.69552,-0.02465,0.00466,-0.02864
-8.1754,-0.53289,3.69552,-0.02465,0.00466,-0.02864
-8.15145,-0.55684,3.70629,-0.02451,0.0036,-0.02851
-8.16702,-0.55445,3.73982,-0.02451,0.0028,-0.02838
-8.16702,-0.55445,3.73982,-0.02451,0.0028,-0.02838
-8.16702,-0.55445,3.73982,-0.02451,0.0028,-0.02838
-8.1742,-0.54127,3.7039,-0.02451,0.00466,-0.02811
-8.1742,-0.54127,3.7039,-0.02451,0.00466,-0.02811
-8.16223,-0.52451,3.69312,-0.02425,0.00573,-0.02811
-8.16821,-0.52211,3.68953,-0.02451,0.00573,-0.02758
-8.16821,-0.52211,3.68953,-0.02451,0.00573,-0.02758
-8.16821,-0.52211,3.68953,-0.02451,0.00573,-0.02758
-8.16821,-0.52211,3.68953,-0.02451,0.00573,-0.02758
-8.15145,-0.51493,3.69192,-0.02531,0.00386,-0.02838
-8.15145,-0.51493,3.69192,-0.02531,0.00386,-0.02838
-8.15145,-0.51493,3.69192,-0.02531,0.00386,-0.02838
-8.15145,-0.51493,3.69192,-0.02531,0.00386,-0.02838
-8.14905,-0.54367,3.69791,-0.02518,0.00386,-0.02851
-8.14666,-0.54606,3.73264,-0.02465,0.004,-0.02904
-8.14666,-0.54606,3.73264,-0.02465,0.004,-0.02904
-8.14666,-0.54606,3.73264,-0.02465,0.004,-0.02904
-8.13828,-0.53289,3.71348,-0.02438,0.00453,-0.02798
-8.13828,-0.53289,3.71348,-0.02438,0.00453,-0.02798
-8.15504,-0.52451,3.7051,-0.02398,0.00546,-0.02771
-8.15504,-0.52451,3.7051,-0.02398,0.00546,-0.02771
-8.16462,-0.51613,3.69073,-0.02385,0.00533,-0.02705
-8.16462,-0.51613,3.69073,-0.02385,0.00533,-0.02705
-8.16462,-0.51613,3.69073,-0.02385,0.00533,-0.02705
-8.17061,-0.53768,3.71228,-0.02385,0.00373,-0.02731
-8.16462,-0.52092,3.68115,-0.02425,0.00466,-0.02811
-8.16462,-0.52092,3.68115,-0.02425,0.00466,-0.02811
-8.16462,-0.52092,3.68115,-0.02425,0.00466,-0.02811
-8.16462,-0.52092,3.68115,-0.02425,0.00466,-0.02811
-8.15025,-0.54127,3.69671,-0.02478,0.0036,-0.02918
-8.15025,-0.54127,3.69671,-0.02478,0.0036,-0.02918
-8.15025,-0.54127,3.69671,-0.02478,0.0036,-0.02918
-8.15025,-0.54127,3.69671,-0.02478,0.0036,-0.02918
-8.15384,-0.54846,3.7027,-0.02425,0.00453,-0.02864
-8.16223,-0.54008,3.69671,-0.02425,0.00453,-0.02798
-8.16223,-0.54008,3.69671,-0.02425,0.00453,-0.02798
-8.16223,-0.54008,3.69671,-0.02425,0.00453,-0.02798
-8.15025,-0.52451,3.7027,-0.02425,0.00453,-0.02718
-8.15025,-0.52451,3.7027,-0.02425,0.00453,-0.02718
-8.16941,-0.52092,3.69671,-0.02398,0.00546,-0.02771
-8.15384,-0.54487,3.68953,-0.02385,0.00426,-0.02864
-8.15384,-0.54487,3.68953,-0.02385,0.00426,-0.02864
-8.15384,-0.54487,3.68953,-0.02385,0.00426,-0.02864
-8.15384,-0.54487,3.68953,-0.02385,0.00426,-0.02864
-8.16342,-0.54247,3.72545,-0.02451,0.0044,-0.02771
-8.16342,-0.54247,3.72545,-0.02451,0.0044,-0.02771
-8.16342,-0.54247,3.72545,-0.02451,0.0044,-0.02771
-8.16342,-0.54247,3.72545,-0.02451,0.0044,-0.02771
-8.15744,-0.5305,3.7039,-0.02491,0.00466,-0.02798
-8.14905,-0.5305,3.69073,-0.02425,0.0044,-0.02811
-8.14905,-0.5305,3.69073,-0.02425,0.0044,-0.02811
-8.14905,-0.5305,3.69073,-0.02425,0.0044,-0.02811
-8.15025,-0.53289,3.68953,-0.02438,0.0044,-0.02825
-8.15025,-0.53289,3.68953,-0.02438,0.0044,-0.02825
-8.1742,-0.54367,3.68474,-0.02411,0.00413,-0.02785
-8.1742,-0.54367,3.68474,-0.02411,0.00413,-0.02785
-8.15624,-0.52092,3.67995,-0.02398,0.004,-0.02838
-8.15624,-0.52092,3.67995,-0.02398,0.004,-0.02838
-8.15624,-0.52092,3.67995,-0.02398,0.004,-0.02838
-8.15744,-0.54127,3.69552,-0.02398,0.00426,-0.02958
-8.15384,-0.53289,3.7051,-0.02491,0.00386,-0.02904
-8.15384,-0.53289,3.7051,-0.02491,0.00386,-0.02904
-8.15384,-0.53289,3.7051,-0.02491,0.00386,-0.02904
-8.15863,-0.53529,3.69552,-0.02451,0.00373,-0.02904
-8.16702,-0.54726,3.68713,-0.02451,0.00386,-0.02851
-8.16702,-0.54726,3.68713,-0.02451,0.00386,-0.02851
-8.16702,-0.54726,3.68713,-0.02451,0.00386,-0.02851
-8.16702,-0.54726,3.68713,-0.02451,0.00386,-0.02851
-8.15504,-0.52451,3.69552,-0.02411,0.0036,-0.02825
-8.15504,-0.52451,3.69552,-0.02411,0.0036,-0.02825
-8.15504,-0.52451,3.69552,-0.02411,0.0036,-0.02825
-8.15504,-0.52451,3.69552,-0.02411,0.0036,-0.02825
-8.15624,-0.52571,3.69073,-0.02465,0.00426,-0.02798
-8.15744,-0.53888,3.73264,-0.02531,0.00506,-0.02864
-8.15744,-0.53888,3.73264,-0.02531,0.00506,-0.02864
-8.13828,-0.54367,3.72186,-0.02505,0.004,-0.02931
-8.13828,-0.54367,3.72186,-0.02505,0.004,-0.02931
-8.13828,-0.54367,3.72186,-0.02505,0.004,-0.02931
-8.16702,-0.55684,3.71228,-0.02425,0.00386,-0.02851
-8.16342,-0.53888,3.7039,-0.02505,0.004,-0.02785
-8.16342,-0.53888,3.7039,-0.02505,0.004,-0.02785
-8.16342,-0.53888,3.7039,-0.02505,0.004,-0.02785
-8.16342,-0.53888,3.7039,-0.02505,0.004,-0.02785
-8.14546,-0.56043,3.69432,-0.02465,0.00533,-0.02851
-8.14546,-0.56043,3.69432,-0.02465,0.00533,-0.02851
-8.14546,-0.56043,3.69432,-0.02465,0.00533,-0.02851
-8.14546,-0.56043,3.69432,-0.02465,0.00533,-0.02851
-8.15025,-0.53888,3.70869,-0.02411,0.00533,-0.02798
-8.16821,-0.54367,3.71108,-0.02411,0.00493,-0.02705
-8.16821,-0.54367,3.71108,-0.02411,0.00493,-0.02705
-8.16821,-0.54367,3.71108,-0.02411,0.00493,-0.02705
-8.1766,-0.51972,3.70749,-0.02451,0.00413,-0.02771
-8.1766,-0.51972,3.70749,-0.02451,0.00413,-0.02771
-8.15983,-0.52571,3.69671,-0.02438,0.00453,-0.02785
-8.15983,-0.52571,3.69671,-0.02438,0.00453,-0.02785
-8.15624,-0.52571,3.69552,-0.02465,0.0044,-0.02785
-8.15624,-0.52571,3.69552,-0.02465,0.0044,-0.02785
-8.15624,-0.52571,3.69552,-0.02465,0.0044,-0.02785
-8.13349,-0.52331,3.69791,-0.02425,0.0048,-0.02771
-8.14426,-0.55205,3.73743,-0.02451,0.00466,-0.02785
-8.14426,-0.55205,3.73743,-0.02451,0.00466,-0.02785
-8.14426,-0.55205,3.73743,-0.02451,0.00466,-0.02785
-8.14426,-0.55205,3.73743,-0.02451,0.00466,-0.02785
-8.15863,-0.53768,3.71108,-0.02451,0.00493,-0.02851
-8.15863,-0.53768,3.71108,-0.02451,0.00493,-0.02851
-8.15863,-0.53768,3.71108,-0.02451,0.00493,-0.02851
-8.15863,-0.53768,3.71108,-0.02451,0.00493,-0.02851
-8.14666,-0.54606,3.7027,-0.02425,0.00426,-0.02771
-8.16462,-0.54606,3.70869,-0.02398,0.00506,-0.02731
-8.16462,-0.54606,3.70869,-0.02398,0.00506,-0.02731
-8.16582,-0.53409,3.69911,-0.02465,0.0048,-0.02838
-8.16582,-0.53409,3.69911,-0.02465,0.0048,-0.02838
-8.16582,-0.53409,3.69911,-0.02465,0.0048,-0.02838
-8.18258,-0.54247,3.67516,-0.02451,0.004,-0.02838
-8.173,-0.54606,3.67037,-0.02465,0.00333,-0.02851
-8.173,-0.54606,3.67037,-0.02465,0.00333,-0.02851
-8.173,-0.54606,3.67037,-0.02465,0.00333,-0.02851
-8.173,-0.54606,3.67037,-0.02465,0.00333,-0.02851
-8.15624,-0.54606,3.68953,-0.02451,0.0032,-0.02864
-8.15624,-0.54606,3.68953,-0.02451,0.0032,-0.02864
-8.15624,-0.54606,3.68953,-0.02451,0.0032,-0.02864
-8.15624,-0.54606,3.68953,-0.02451,0.0032,-0.02864
-8.16103,-0.53409,3.69671,-0.02438,0.0032,-0.02838
-8.1754,-0.53529,3.69671,-0.02398,0.0044,-0.02798
-8.1754,-0.53529,3.69671,-0.02398,0.0044,-0.02798
-8.1754,-0.53529,3.69671,-0.02398,0.0044,-0.02798
-8.17061,-0.53768,3.69791,-0.02372,0.00466,-0.02758
-8.17061,-0.53768,3.69791,-0.02372,0.00466,-0.02758
-8.1754,-0.52451,3.67037,-0.02425,0.00466,-0.02825
-8.1754,-0.52451,3.67037,-0.02425,0.00466,-0.02825
-8.17061,-0.55325,3.70031,-0.02372,0.004,-0.02851
-8.17061,-0.55325,3.70031,-0.02372,0.004,-0.02851
-8.17061,-0.55325,3.70031,-0.02372,0.004,-0.02851
-8.15744,-0.54008,3.69552,-0.02438,0.00413,-0.02811
-8.14905,-0.54606,3.7015,-0.02491,0.00413,-0.02904
-8.14905,-0.54606,3.7015,-0.02491,0.00413,-0.02904
-8.14905,-0.54606,3.7015,-0.02491,0.00413,-0.02904
-8.14905,-0.54606,3.7015,-0.02491,0.00413,-0.02904
-8.15983,-0.51852,3.71947,-0.02451,0.00413,-0.02745
-8.15983,-0.51852,3.71947,-0.02451,0.00413,-0.02745
-8.15983,-0.51852,3.71947,-0.02451,0.00413,-0.02745
-8.15983,-0.51852,3.71947,-0.02451,0.00413,-0.02745
-8.17779,-0.54726,3.67995,-0.02425,0.00426,-0.02731
-8.15863,-0.5269,3.69192,-0.02385,0.0048,-0.02691
-8.15863,-0.5269,3.69192,-0.02385,0.0048,-0.02691
-8.1754,-0.5281,3.7039,-0.02425,0.0048,-0.02758
-8.1754,-0.5281,3.7039,-0.02425,0.0048,-0.02758
-8.1754,-0.5281,3.7039,-0.02425,0.0048,-0.02758
-8.16582,-0.52211,3.66438,-0.02438,0.00493,-0.02811
-8.15863,-0.52451,3.7027,-0.02451,0.00426,-0.02878
-8.15863,-0.52451,3.7027,-0.02451,0.00426,-0.02878
-8.15863,-0.52451,3.7027,-0.02451,0.00426,-0.02878
-8.15863,-0.52451,3.7027,-0.02451,0.00426,-0.02878
-8.15624,-0.54247,3.67875,-0.02478,0.00413,-0.02798
-8.15624,-0.54247,3.67875,-0.02478,0.00413,-0.02798
-8.15624,-0.54247,3.67875,-0.02478,0.00413,-0.02798
-8.15624,-0.54247,3.67875,-0.02478,0.00413,-0.02798
-8.14307,-0.53888,3.69671,-0.02531,0.00413,-0.02758
-8.16103,-0.53888,3.68713,-0.02451,0.004,-0.02718
-8.16103,-0.53888,3.68713,-0.02451,0.004,-0.02718
-8.16103,-0.53888,3.68713,-0.02451,0.004,-0.02718
-8.16103,-0.53888,3.68115,-0.02411,0.004,-0.02771
-8.16103,-0.53888,3.68115,-0.02411,0.004,-0.02771
-8.16223,-0.54487,3.68713,-0.02398,0.00386,-0.02798
-8.16223,-0.54487,3.68713,-0.02398,0.00386,-0.02798
-8.16702,-0.53888,3.70869,-0.02465,0.00346,-0.02838
-8.16702,-0.53888,3.70869,-0.02465,0.00346,-0.02838
-8.16702,-0.53888,3.70869,-0.02465,0.00346,-0.02838
-8.14067,-0.54487,3.69073,-0.02411,0.00466,-0.02811
-8.15265,-0.51613,3.72665,-0.02372,0.00466,-0.02771
-8.15265,-0.51613,3.72665,-0.02372,0.00466,-0.02771
-8.15265,-0.51613,3.72665,-0.02372,0.00466,-0.02771
-8.15265,-0.51613,3.72665,-0.02372,0.00466,-0.02771
-8.16821,-0.5305,3.7051,-0.02411,0.00413,-0.02891
-8.16821,-0.5305,3.7051,-0.02411,0.00413,-0.02891
-8.16821,-0.5305,3.7051,-0.02411,0.00413,-0.02891
-8.16821,-0.5305,3.7051,-0.02411,0.00413,-0.02891
-8.15863,-0.54726,3.66677,-0.02438,0.00466,-0.02931
-8.16223,-0.53888,3.68833,-0.02438,0.00386,-0.02971
-8.16223,-0.53888,3.68833,-0.02438,0.00386,-0.02971
-8.16103,-0.54367,3.70869,-0.02438,0.0032,-0.02891
-8.16103,-0.54367,3.70869,-0.02438,0.0032,-0.02891
-8.16103,-0.54367,3.70869,-0.02438,0.0032,-0.02891
-8.15744,-0.55804,3.69791,-0.02465,0.0036,-0.02811
-8.15863,-0.53888,3.72186,-0.02531,0.00466,-0.02785
-8.15863,-0.53888,3.72186,-0.02531,0.00466,-0.02785
-8.15863,-0.53888,3.72186,-0.02531,0.00466,-0.02785
-8.15863,-0.53888,3.72186,-0.02531,0.00466,-0.02785
-8.15265,-0.51613,3.69671,-0.02438,0.00453,-0.02811
-8.15265,-0.51613,3.69671,-0.02438,0.00453,-0.02811
-8.15265,-0.51613,3.69671,-0.02438,0.00453,-0.02811
-8.15265,-0.51613,3.69671,-0.02438,0.00453,-0.02811
-8.14786,-0.54846,3.71587,-0.02451,0.00453,-0.02785
-8.15863,-0.5305,3.70749,-0.02451,0.00373,-0.02838
-8.15863,-0.5305,3.70749,-0.02451,0.00373,-0.02838
-8.15863,-0.5305,3.70749,-0.02451,0.00373,-0.02838
-8.16702,-0.53888,3.70749,-0.02451,0.00386,-0.02878
-8.16702,-0.53888,3.70749,-0.02451,0.00386,-0.02878
-8.13828,-0.54846,3.69911,-0.02438,0.00426,-0.02811
-8.13828,-0.54846,3.69911,-0.02438,0.00426,-0.02811
-8.15025,-0.55325,3.68354,-0.02505,0.00493,-0.02798
-8.15025,-0.55325,3.68354,-0.02505,0.00493,-0.02798
-8.15025,-0.55325,3.68354,-0.02505,0.00493,-0.02798
-8.15145,-0.53409,3.72545,-0.02478,0.0056,-0.02785
-8.16941,-0.54726,3.69432,-0.02438,0.00546,-0.02785
-8.16941,-0.54726,3.69432,-0.02438,0.00546,-0.02785
-8.16941,-0.54726,3.69432,-0.02438,0.00546,-0.02785
-8.16941,-0.54726,3.69432,-0.02438,0.00546,-0.02785
-8.15504,-0.54127,3.69432,-0.02478,0.00426,-0.02758
-8.15504,-0.54127,3.69432,-0.02478,0.00426,-0.02758
-8.15504,-0.54127,3.69432,-0.02478,0.00426,-0.02758
-8.15504,-0.54127,3.69432,-0.02478,0.00426,-0.02758
-8.17899,-0.52571,3.71108,-0.02425,0.00333,-0.02771
-8.16462,-0.54367,3.71468,-0.02465,0.00373,-0.02851
-8.16462,-0.54367,3.71468,-0.02465,0.00373,-0.02851
-8.15863,-0.53409,3.67396,-0.02451,0.00373,-0.02838
-8.15863,-0.53409,3.67396,-0.02451,0.00373,-0.02838
-8.15863,-0.53409,3.67396,-0.02451,0.00373,-0.02838
-8.16342,-0.53648,3.65959,-0.02451,0.00453,-0.02891
-8.16342,-0.53648,3.69791,-0.02491,0.0048,-0.02891
-8.16342,-0.53648,3.69791,-0.02491,0.0048,-0.02891
-8.16342,-0.53648,3.69791,-0.02491,0.0048,-0.02891
-8.16342,-0.53648,3.69791,-0.02491,0.0048,-0.02891
-8.14905,-0.55085,3.70869,-0.02451,0.00493,-0.02811
-8.14905,-0.55085,3.70869,-0.02451,0.00493,-0.02811
-8.14905,-0.55085,3.70869,-0.02451,0.00493,-0.02811
-8.14905,-0.55085,3.70869,-0.02451,0.00493,-0.02811
-8.15384,-0.55564,3.71468,-0.02505,0.00506,-0.02878
-8.173,-0.53768,3.71827,-0.02505,0.00506,-0.02864
-8.173,-0.53768,3.71827,-0.02505,0.00506,-0.02864
-8.173,-0.53768,3.71827,-0.02505,0.00506,-0.02864
-8.15384,-0.52092,3.68953,-0.02438,0.0048,-0.02811
-8.15384,-0.52092,3.68953,-0.02438,0.0048,-0.02811
-8.15744,-0.51493,3.68354,-0.02438,0.00413,-0.02731
-8.15744,-0.51493,3.68354,-0.02438,0.00413,-0.02731
-8.14786,-0.54008,3.68953,-0.02505,0.00413,-0.02825
-8.14786,-0.54008,3.68953,-0.02505,0.00413,-0.02825
-8.14786,-0.54008,3.68953,-0.02505,0.00413,-0.02825
-8.15025,-0.55924,3.67755,-0.02518,0.00373,-0.02864
-8.15145,-0.5293,3.71707,-0.02518,0.00413,-0.02878
-8.15145,-0.5293,3.71707,-0.02518,0.00413,-0.02878
-8.15145,-0.5293,3.71707,-0.02518,0.00413,-0.02878
-8.15145,-0.5293,3.71707,-0.02518,0.00413,-0.02878
-8.16941,-0.55445,3.69312,-0.02478,0.0044,-0.02851
-8.16941,-0.55445,3.69312,-0.02478,0.0044,-0.02851
-8.16941,-0.55445,3.69312,-0.02478,0.0044,-0.02851
-8.16941,-0.55445,3.69312,-0.02478,0.0044,-0.02851
-8.15504,-0.53768,3.71228,-0.02438,0.0044,-0.02838
-8.19097,-0.52211,3.70031,-0.02425,0.00453,-0.02851
-8.19097,-0.52211,3.70031,-0.02425,0.00453,-0.02851
-8.17061,-0.5305,3.70629,-0.02425,0.004,-0.02838
-8.17061,-0.5305,3.70629,-0.02425,0.004,-0.02838
-8.17061,-0.5305,3.70629,-0.02425,0.004,-0.02838
-8.15624,-0.51613,3.69791,-0.02478,0.00426,-0.02811
-8.15863,-0.54247,3.71228,-0.02465,0.00493,-0.02864
-8.15863,-0.54247,3.71228,-0.02465,0.00493,-0.02864
-8.15863,-0.54247,3.71228,-0.02465,0.00493,-0.02864
-8.15863,-0.54247,3.71228,-0.02465,0.00493,-0.02864
-8.14666,-0.5305,3.71348,-0.02478,0.0036,-0.02811
-8.14666,-0.5305,3.71348,-0.02478,0.0036,-0.02811
-8.14666,-0.5305,3.71348,-0.02478,0.0036,-0.02811
-8.14666,-0.5305,3.71348,-0.02478,0.0036,-0.02811
-8.16702,-0.54247,3.67276,-0.02438,0.00373,-0.02838
-8.16103,-0.55684,3.67396,-0.02398,0.00413,-0.02838
-8.16103,-0.55684,3.67396,-0.02398,0.00413,-0.02838
-8.16103,-0.55684,3.67396,-0.02398,0.00413,-0.02838
-8.15863,-0.55564,3.68713,-0.02385,0.00413,-0.02825
-8.15863,-0.55564,3.68713,-0.02385,0.00413,-0.02825
-8.17061,-0.5305,3.69671,-0.02385,0.00453,-0.02785
-8.17061,-0.5305,3.69671,-0.02385,0.00453,-0.02785
-8.15504,-0.52571,3.69432,-0.02438,0.00386,-0.02825
-8.15504,-0.52571,3.69432,-0.02438,0.00386,-0.02825
-8.15504,-0.52571,3.69432,-0.02438,0.00386,-0.02825
-8.17779,-0.54247,3.67875,-0.02465,0.004,-0.02771
-8.1742,-0.53648,3.69671,-0.02465,0.00426,-0.02785
-8.1742,-0.53648,3.69671,-0.02465,0.00426,-0.02785
-8.1742,-0.53648,3.69671,-0.02465,0.00426,-0.02785
-8.1742,-0.53648,3.69671,-0.02465,0.00426,-0.02785
-8.15624,-0.52331,3.64881,-0.02451,0.00373,-0.02851
-8.15624,-0.52331,3.64881,-0.02451,0.00373,-0.02851
-8.15624,-0.52331,3.64881,-0.02451,0.00373,-0.02851
-8.15624,-0.52331,3.64881,-0.02451,0.00373,-0.02851
-8.13947,-0.5305,3.67755,-0.02478,0.00386,-0.02864
-8.14307,-0.52451,3.70031,-0.02438,0.00466,-0.02904
-8.14307,-0.52451,3.70031,-0.02438,0.00466,-0.02904
-8.14905,-0.53768,3.7027,-0.02411,0.00453,-0.02864
-8.14905,-0.53768,3.7027,-0.02411,0.00453,-0.02864
-8.14905,-0.53768,3.7027,-0.02411,0.00453,-0.02864
-8.15504,-0.53768,3.69791,-0.02465,0.00493,-0.02864
-8.16462,-0.5281,3.72186,-0.02478,0.004,-0.02811
-8.16462,-0.5281,3.72186,-0.02478,0.004,-0.02811
-8.16462,-0.5281,3.72186,-0.02478,0.004,-0.02811
-8.16462,-0.5281,3.72186,-0.02478,0.004,-0.02811
-8.16821,-0.54247,3.68953,-0.02451,0.00493,-0.02825
-8.16821,-0.54247,3.68953,-0.02451,0.00493,-0.02825
-8.16821,-0.54247,3.68953,-0.02451,0.00493,-0.02825
-8.16821,-0.54247,3.68953,-0.02451,0.00493,-0.02825
-8.173,-0.54966,3.67636,-0.02478,0.00453,-0.02825
-8.18019,-0.54127,3.67755,-0.02478,0.00426,-0.02825
-8.18019,-0.54127,3.67755,-0.02478,0.00426,-0.02825
-8.18019,-0.54127,3.67755,-0.02478,0.00426,-0.02825
-8.16223,-0.52211,3.68953,-0.02451,0.00466,-0.02811
-8.16223,-0.52211,3.68953,-0.02451,0.00466,-0.02811
-8.15145,-0.5281,3.7027,-0.02451,0.00453,-0.02825
-8.15145,-0.5281,3.7027,-0.02451,0.00453,-0.02825
-8.16821,-0.53289,3.68953,-0.02438,0.004,-0.02825
-8.16821,-0.53289,3.68953,-0.02438,0.004,-0.02825
-8.16821,-0.53289,3.68953,-0.02438,0.004,-0.02825
-8.16223,-0.54367,3.70031,-0.02451,0.00413,-0.02825
-8.16342,-0.55325,3.67755,-0.02372,0.00466,-0.02811
-8.16342,-0.55325,3.67755,-0.02372,0.00466,-0.02811
-8.16342,-0.55325,3.67755,-0.02372,0.00466,-0.02811
-8.16342,-0.55325,3.67755,-0.02372,0.00466,-0.02811
-8.15744,-0.51493,3.70031,-0.02398,0.00506,-0.02785
-8.15744,-0.51493,3.70031,-0.02398,0.00506,-0.02785
-8.15744,-0.51493,3.70031,-0.02398,0.00506,-0.02785
-8.15744,-0.51493,3.70031,-0.02398,0.00506,-0.02785
-8.16103,-0.51732,3.72905,-0.02411,0.00413,-0.02825
-8.15983,-0.51253,3.68713,-0.02438,0.00493,-0.02864
-8.15983,-0.51253,3.68713,-0.02438,0.00493,-0.02864
-8.15863,-0.50535,3.67516,-0.02438,0.00533,-0.02798
-8.15863,-0.50535,3.67516,-0.02438,0.00533,-0.02798
-8.16223,-0.5269,3.68953,-0.02438,0.00413,-0.02851
-8.16223,-0.5269,3.68953,-0.02438,0.00413,-0.02851
-8.15624,-0.54726,3.73264,-0.02451,0.0036,-0.02851
-8.15624,-0.54726,3.73264,-0.02451,0.0036,-0.02851
-8.15624,-0.54726,3.73264,-0.02451,0.0036,-0.02851
-8.14905,-0.54966,3.71587,-0.02425,0.004,-0.02718
-8.1742,-0.52571,3.68953,-0.02451,0.0048,-0.02771
-8.1742,-0.52571,3.68953,-0.02451,0.0048,-0.02771
-8.1742,-0.52571,3.68953,-0.02451,0.0048,-0.02771
-8.1742,-0.52571,3.68953,-0.02451,0.0048,-0.02771
-8.14067,-0.51732,3.67636,-0.02478,0.004,-0.02864
-8.14067,-0.51732,3.67636,-0.02478,0.004,-0.02864
-8.14067,-0.51732,3.67636,-0.02478,0.004,-0.02864
-8.14067,-0.51732,3.67636,-0.02478,0.004,-0.02864
-8.14666,-0.5281,3.67995,-0.02478,0.00413,-0.02958
-7.19584,-0.10179,3.71348,-0.02545,0.06488,-0.04983
-7.19584,-0.10179,3.71348,-0.02545,0.06488,-0.04983
-7.19584,-0.10179,3.71348,-0.02545,0.06488,-0.04983
-7.16111,-0.37482,3.45721,-0.03704,0.21024,-0.03357
-7.16111,-0.37482,3.45721,-0.03704,0.21024,-0.03357
-8.11193,-0.51014,3.70629,-0.04117,0.28178,-0.03104
-8.11193,-0.51014,3.70629,-0.04117,0.28178,-0.03104
-8.90468,-0.61313,3.69073,-0.0421,0.29804,-0.01732
-8.90468,-0.61313,3.69073,-0.0421,0.29804,-0.01732
-8.90468,-0.61313,3.69073,-0.0421,0.29804,-0.01732
-7.75627,-0.53289,3.52307,-0.04237,0.3055,-0.02278
-7.67245,-0.35087,3.35303,-0.04543,0.34214,-0.0401
-7.67245,-0.35087,3.35303,-0.04543,0.34214,-0.0401
-7.67245,-0.35087,3.35303,-0.04543,0.34214,-0.0401
-7.67245,-0.35087,3.35303,-0.04543,0.34214,-0.0401
-9.28789,-0.57121,3.61169,-0.04863,0.33268,-0.0485
-9.28789,-0.57121,3.61169,-0.04863,0.33268,-0.0485
-9.28789,-0.57121,3.61169,-0.04863,0.33268,-0.0485
-9.28789,-0.57121,3.61169,-0.04863,0.33268,-0.0485
-8.69272,-0.52092,3.69671,-0.04743,0.31323,-0.03384
-7.76585,-0.56283,3.40093,-0.05143,0.31802,-0.02212
-7.76585,-0.56283,3.40093,-0.05143,0.31802,-0.02212
-7.83052,-0.60235,3.19376,-0.05289,0.31336,-0.01612
-7.83052,-0.60235,3.19376,-0.05289,0.31336,-0.01612
-7.83052,-0.60235,3.19376,-0.05289,0.31336,-0.01612
-7.95027,-0.41554,3.35662,-0.04623,0.29444,-0.01732
-9.54655,-0.57959,3.34824,-0.0473,0.29537,-0.03238
-9.54655,-0.57959,3.34824,-0.0473,0.29537,-0.03238
-9.54655,-0.57959,3.34824,-0.0473,0.29537,-0.03238
-9.54655,-0.57959,3.34824,-0.0473,0.29537,-0.03238
-7.33714,-0.63827,3.20214,-0.04517,0.30337,-0.02225
-7.33714,-0.63827,3.20214,-0.04517,0.30337,-0.02225
-7.33714,-0.63827,3.20214,-0.04517,0.30337,-0.02225
-7.33714,-0.63827,3.20214,-0.04517,0.30337,-0.02225
-7.62814,-0.78557,3.20813,-0.04676,0.32135,-0.02198
-8.76697,-0.73288,3.21292,-0.04557,0.31842,-0.02025
-8.76697,-0.73288,3.21292,-0.04557,0.31842,-0.02025
-8.76697,-0.73288,3.21292,-0.04557,0.31842,-0.02025
-9.42201,-0.48739,3.22849,-0.04383,0.32029,-0.03917
-9.42201,-0.48739,3.22849,-0.04383,0.32029,-0.03917
-8.41969,-0.38081,3.22609,-0.04703,0.31549,-0.04077
-8.41969,-0.38081,3.22609,-0.04703,0.31549,-0.04077
-7.13955,-0.42272,2.9794,-0.04703,0.32415,-0.02705
-7.13955,-0.42272,2.9794,-0.04703,0.32415,-0.02705
-7.13955,-0.42272,2.9794,-0.04703,0.32415,-0.02705
-7.6952,-0.80712,3.06802,-0.04956,0.34014,-0.02825
-9.34896,-0.87059,3.2201,-0.0449,0.32029,-0.02611
-9.34896,-0.87059,3.2201,-0.0449,0.32029,-0.02611
-9.34896,-0.87059,3.2201,-0.0449,0.32029,-0.02611
-9.34896,-0.87059,3.2201,-0.0449,0.32029,-0.02611
-7.87722,-0.26345,2.92911,-0.04064,0.29964,-0.03238
-7.87722,-0.26345,2.92911,-0.04064,0.29964,-0.03238
-7.87722,-0.26345,2.92911,-0.04064,0.29964,-0.03238
-7.87722,-0.26345,2.92911,-0.04064,0.29964,-0.03238
-7.4066,-0.21555,2.76864,-0.0441,0.33161,-0.01705
-7.93829,-0.74126,2.83211,-0.04743,0.346,-0.01879
-7.93829,-0.74126,2.83211,-0.04743,0.346,-0.01879
-9.24957,-0.73407,3.05365,-0.04343,0.32309,-0.02198
-9.24957,-0.73407,3.05365,-0.04343,0.32309,-0.02198
-9.24957,-0.73407,3.05365,-0.04343,0.32309,-0.02198
-9.17053,-0.69456,3.03928,-0.0417,0.31802,-0.03571
-7.30002,-0.23232,2.63811,-0.03957,0.2983,-0.03238
-7.30002,-0.23232,2.63811,-0.03957,0.2983,-0.03238
-7.30002,-0.23232,2.63811,-0.03957,0.2983,-0.03238
-7.30002,-0.23232,2.63811,-0.03957,0.2983,-0.03238
-9.19807,-0.62869,2.84049,-0.04437,0.34574,-0.01146
-9.19807,-0.62869,2.84049,-0.04437,0.34574,-0.01146
-9.19807,-0.62869,2.84049,-0.04437,0.34574,-0.01146
-9.19807,-0.62869,2.84049,-0.04437,0.34574,-0.01146
-9.31663,-0.62271,2.91115,-0.04104,0.30283,-0.02158
-8.5586,-0.58319,2.82732,-0.03997,0.29271,-0.03557
-8.5586,-0.58319,2.82732,-0.03997,0.29271,-0.03557
-8.5586,-0.58319,2.82732,-0.03997,0.29271,-0.03557
-7.22338,-0.3868,2.48004,-0.03957,0.28338,-0.03877
-7.22338,-0.3868,2.48004,-0.03957,0.28338,-0.03877
-7.6485,-0.59995,2.55788,-0.04157,0.32242,-0.01985
-7.6485,-0.59995,2.55788,-0.04157,0.32242,-0.01985
-9.93574,-0.63348,2.81535,-0.0433,0.34827,-0.01639
-9.93574,-0.63348,2.81535,-0.0433,0.34827,-0.01639
-9.93574,-0.63348,2.81535,-0.0433,0.34827,-0.01639
-9.07114,-0.51732,2.73631,-0.04024,0.30856,-0.02864
-8.20534,-0.51253,2.55549,-0.04064,0.3107,-0.04223
-8.20534,-0.51253,2.55549,-0.04064,0.3107,-0.04223
-8.20534,-0.51253,2.55549,-0.04064,0.3107,-0.04223
-8.20534,-0.51253,2.55549,-0.04064,0.3107,-0.04223
-8.47238,-0.74126,2.4513,-0.0445,0.34254,-0.02811
-8.47238,-0.74126,2.4513,-0.0445,0.34254,-0.02811
-8.47238,-0.74126,2.4513,-0.0445,0.34254,-0.02811
-8.47238,-0.74126,2.4513,-0.0445,0.34254,-0.02811
-10.06028,-0.59875,2.7423,-0.04317,0.33508,-0.02252
-8.97055,-0.52571,2.57824,-0.0405,0.29671,-0.02385
-8.97055,-0.52571,2.57824,-0.0405,0.29671,-0.02385
-7.58862,-0.42751,2.37227,-0.04064,0.28565,-0.02638
-7.58862,-0.42751,2.37227,-0.04064,0.28565,-0.02638
-7.58862,-0.42751,2.37227,-0.04064,0.28565,-0.02638
-7.41019,-0.70294,2.25132,-0.04303,0.29364,-0.03757
-9.4723,-0.85502,2.41657,-0.04477,0.33441,-0.02558
-9.4723,-0.85502,2.41657,-0.04477,0.33441,-0.02558
-9.4723,-0.85502,2.41657,-0.04477,0.33441,-0.02558
-9.4723,-0.85502,2.41657,-0.04477,0.33441,-0.02558
-8.41011,-0.47781,2.36388,-0.0401,0.29964,-0.02811
-8.41011,-0.47781,2.36388,-0.0401,0.29964,-0.02811
-8.41011,-0.47781,2.36388,-0.0401,0.29964,-0.02811
-8.41011,-0.47781,2.36388,-0.0401,0.29964,-0.02811
-7.35391,-0.41075,2.19025,-0.0401,0.29724,-0.02665
-7.47965,-0.80832,2.11241,-0.0433,0.31509,-0.03584
-7.47965,-0.80832,2.11241,-0.0433,0.31509,-0.03584
-7.47965,-0.80832,2.11241,-0.0433,0.31509,-0.03584
-9.89383,-0.77838,2.34832,-0.04263,0.34054,-0.02611
-9.89383,-0.77838,2.34832,-0.04263,0.34054,-0.02611
-9.72258,-0.54008,2.31359,-0.04104,0.33081,-0.03118
-9.72258,-0.54008,2.31359,-0.04104,0.33081,-0.03118
-8.30114,-0.36644,2.15791,-0.03984,0.3023,-0.02731
-8.30114,-0.36644,2.15791,-0.03984,0.3023,-0.02731
-8.30114,-0.36644,2.15791,-0.03984,0.3023,-0.02731
-7.42696,-0.31255,1.98427,-0.04037,0.29284,-0.02531
-7.75986,-0.70294,1.9723,-0.04263,0.30963,-0.03451
-7.75986,-0.70294,1.9723,-0.04263,0.30963,-0.03451
-7.75986,-0.70294,1.9723,-0.04263,0.30963,-0.03451
-7.75986,-0.70294,1.9723,-0.04263,0.30963,-0.03451
-9.11305,-0.62271,2.14953,-0.04223,0.32522,-0.03064
-9.11305,-0.62271,2.14953,-0.04223,0.32522,-0.03064
-9.11305,-0.62271,2.14953,-0.04223,0.32522,-0.03064
-7.77543,-0.32213,1.83578,-0.04117,0.30657,-0.02838
-7.77543,-0.32213,1.83578,-0.04117,0.30657,-0.02838
-7.82573,-0.39278,1.88488,-0.04157,0.31216,-0.02038
-7.82573,-0.39278,1.88488,-0.04157,0.31216,-0.02038
-8.9442,-0.61073,1.90763,-0.04277,0.33188,-0.03224
-8.9442,-0.61073,1.90763,-0.04277,0.33188,-0.03224
-8.9442,-0.61073,1.90763,-0.04277,0.33188,-0.03224
-9.137,-0.58438,2.08726,-0.04237,0.33135,-0.02345
-8.46639,-0.65145,1.90524,-0.04263,0.34613,-0.01958
-8.46639,-0.65145,1.90524,-0.04263,0.34613,-0.01958
-8.46639,-0.65145,1.90524,-0.04263,0.34613,-0.01958
-8.46639,-0.65145,1.90524,-0.04263,0.34613,-0.01958
-7.82213,-0.59037,1.72202,-0.0413,0.31336,-0.01519
-7.82213,-0.59037,1.72202,-0.0413,0.31336,-0.01519
-7.82213,-0.59037,1.72202,-0.0413,0.31336,-0.01519
-7.82213,-0.59037,1.72202,-0.0413,0.31336,-0.01519
-9.79443,-0.60354,1.825,-0.04157,0.32921,-0.02531
-9.21125,-0.54606,1.93997,-0.04077,0.31483,-0.02372
-9.21125,-0.54606,1.93997,-0.04077,0.31483,-0.02372
-9.21125,-0.54606,1.93997,-0.04077,0.31483,-0.02372
-8.14426,-0.59875,1.71124,-0.0421,0.32828,-0.02198
-8.14426,-0.59875,1.71124,-0.0421,0.32828,-0.02198
-7.80896,-0.56043,1.50168,-0.04263,0.31682,-0.02491
-7.80896,-0.56043,1.50168,-0.04263,0.31682,-0.02491
-8.49513,-0.73647,1.56275,-0.0425,0.31762,-0.01719
-8.49513,-0.73647,1.56275,-0.0425,0.31762,-0.01719
-8.49513,-0.73647,1.56275,-0.0425,0.31762,-0.01719
-10.40876,-0.58199,1.79387,-0.0409,0.32375,-0.03131
-8.63045,-0.45386,1.70166,-0.0389,0.29777,-0.02718
-8.63045,-0.45386,1.70166,-0.0389,0.29777,-0.02718
-8.63045,-0.45386,1.70166,-0.0389,0.29777,-0.02718
-8.63045,-0.45386,1.70166,-0.0389,0.29777,-0.02718
-8.29755,-0.73407,1.46336,-0.04423,0.32615,-0.01905
-8.29755,-0.73407,1.46336,-0.04423,0.32615,-0.01905
-8.29755,-0.73407,1.46336,-0.04423,0.32615,-0.01905
-9.43398,-0.79395,1.52204,-0.04143,0.30683,-0.02185
-9.43398,-0.79395,1.52204,-0.04143,0.30683,-0.02185
